d
ms,left,right,volts,ma,held,gx,gy,gz,ax,ay,az,p0,p1,p2,p3,p4,p5,p6,p7,p8,p9,p10,p11,p12,p13,p14,p15,p16,p17,p18,p19,p20,p21,p22,p23,p24,p25,p26,p27,p28,p29,p30,p31,p32,p33,p34,p35,p36,p37,p38,p39,p40,p41,p42,p43,p44,p45,p46,p47,p48,p49,p50,p51,p52,p53,p54,p55,p56,p57,p58,p59,p60,p61,p62,p63
2186752,0,0,5.22,55,0,-0.3,0.3,-0.7,-0.021,-0.043,1.013,27.50,27.75,27.00,27.50,27.50,27.25,27.50,27.75,27.25,27.25,27.00,26.75,26.75,26.75,26.75,27.75,27.75,27.75,27.25,27.25,27.00,27.50,27.25,27.00,27.75,27.75,28.50,28.50,28.00,27.75,26.75,27.00,30.75,29.50,28.25,28.00,28.00,26.75,26.75,27.00,29.50,26.75,26.00,26.00,25.75,26.25,28.25,28.00,27.25,25.25,25.75,25.25,24.75,25.75,27.25,30.00,27.25,25.50,25.00,25.75,25.50,25.50,24.75,27.75
2186852,0,0,5.22,53,0,-0.1,0.3,-0.8,-0.022,-0.041,1.006,27.25,27.00,27.00,27.00,27.25,27.00,27.50,27.50,27.25,27.25,26.75,26.75,26.75,26.75,26.75,27.00,27.25,27.75,27.00,27.00,26.75,26.75,27.00,26.75,28.00,27.75,28.25,28.25,28.50,27.75,26.25,26.75,30.25,29.50,28.50,28.25,28.50,26.75,26.25,26.75,29.25,26.50,26.00,26.00,25.75,26.00,28.00,27.75,27.75,25.75,25.75,25.25,25.00,25.75,27.00,29.25,27.25,25.50,24.75,25.50,25.75,25.50,24.75,27.50
2186952,0,0,5.22,53,0,0.0,0.3,-0.7,-0.021,-0.043,1.004,27.25,27.50,27.00,27.50,27.25,27.50,27.25,27.25,27.75,27.25,26.75,27.25,26.75,27.50,27.00,27.50,27.50,28.00,27.00,27.25,27.00,27.25,27.25,26.75,28.00,28.00,28.50,28.50,28.25,27.75,26.75,27.00,30.25,29.50,28.75,28.50,28.25,27.25,26.75,26.50,29.75,26.25,26.00,25.75,25.75,26.50,28.50,28.00,28.25,26.00,25.75,25.50,25.75,26.00,27.00,29.75,28.00,25.75,25.50,25.50,25.50,25.25,25.00,28.00
2187052,0,0,5.22,54,0,0.0,0.2,-0.7,-0.023,-0.042,1.005,28.00,27.25,27.25,27.00,27.75,27.50,27.25,27.25,27.50,27.50,27.00,27.00,26.75,27.00,27.50,27.50,27.75,27.75,26.75,27.50,27.25,27.00,27.00,26.75,28.25,28.25,28.50,28.25,28.50,27.25,27.00,27.00,30.25,30.00,28.75,28.75,28.50,27.00,27.00,26.75,29.25,26.50,26.00,26.00,25.50,26.50,28.50,28.25,27.75,25.75,25.50,25.25,25.50,25.75,27.00,30.50,27.75,26.00,25.00,25.50,25.00,25.50,25.00,27.75
2187152,0,0,5.22,57,0,0.0,0.2,-0.7,-0.024,-0.046,1.006,27.25,27.50,26.75,27.50,27.25,27.50,27.75,27.25,27.50,27.50,26.75,26.75,27.25,27.25,27.00,27.50,27.75,27.25,27.00,27.25,27.50,27.50,27.50,27.25,28.25,28.25,29.00,28.50,28.25,27.75,26.50,27.00,30.00,29.75,28.00,28.75,29.00,27.75,26.50,26.75,29.25,26.75,25.75,26.00,26.00,26.25,28.00,27.75,27.75,26.25,26.00,25.50,25.50,25.25,26.75,30.25,26.75,25.50,25.00,25.75,25.50,25.75,25.75,28.00
2187252,0,0,5.22,53,0,0.0,0.2,-0.7,-0.021,-0.045,1.007,28.00,27.50,27.25,27.75,27.50,27.75,27.75,27.50,27.25,27.50,26.75,27.00,26.75,26.75,27.00,27.25,27.75,28.00,27.00,27.00,27.25,27.00,27.00,27.25,27.75,28.00,28.50,28.00,27.75,27.25,26.50,27.00,30.25,29.50,28.75,29.50,28.75,26.75,27.00,26.50,29.25,26.25,26.50,26.50,26.50,26.25,28.00,27.75,27.50,25.75,25.75,25.50,25.50,25.75,27.00,30.00,27.50,25.50,25.75,25.50,25.75,25.50,25.25,28.00
2187352,0,0,5.22,54,0,-0.1,0.2,-0.7,-0.027,-0.042,1.007,26.75,27.00,26.75,27.25,26.50,27.25,27.25,27.25,27.25,27.00,27.00,27.00,27.00,27.00,27.00,27.00,27.50,28.00,27.25,27.00,27.25,27.00,27.00,26.75,27.75,27.50,28.00,27.50,27.50,27.00,26.50,26.75,30.00,28.50,29.75,28.25,27.50,25.75,26.75,26.75,28.50,26.75,27.00,27.75,26.25,26.25,28.00,27.75,26.75,25.75,26.25,25.25,25.50,25.50,26.50,30.25,26.25,25.75,25.00,25.25,25.50,25.75,25.50,27.50
2187452,0,0,5.22,54,0,0.1,0.2,-0.7,-0.026,-0.041,1.002,27.50,27.50,27.25,27.50,27.50,27.75,27.25,27.50,27.50,27.25,27.00,27.00,27.25,27.25,27.25,27.50,27.00,27.25,27.00,27.00,27.00,27.25,27.00,26.75,26.50,27.00,27.50,27.25,27.25,27.25,26.75,26.50,29.00,29.25,28.75,28.00,26.75,26.00,26.25,26.75,28.50,28.50,29.50,28.25,26.75,26.25,28.25,28.25,27.00,25.75,26.50,25.75,26.00,26.00,27.00,30.00,26.75,25.75,25.50,25.75,25.50,26.00,25.50,28.25
2187552,0,0,5.22,57,0,0.0,0.3,-0.8,-0.021,-0.041,1.001,27.25,27.25,27.25,27.00,27.50,27.00,27.25,27.50,27.50,27.50,27.00,26.75,26.75,26.75,26.75,27.50,27.50,27.50,27.25,27.25,27.00,27.25,27.25,27.00,26.50,26.75,27.75,27.25,27.25,26.75,26.50,27.00,29.50,29.50,29.00,27.75,26.50,25.75,26.50,26.50,29.75,29.25,27.25,28.75,26.75,26.50,28.00,28.00,28.25,27.75,26.00,25.75,25.75,25.50,26.25,30.00,26.75,25.50,25.50,25.75,26.00,25.50,25.25,28.00
2187652,0,0,5.22,54,0,-0.1,0.3,-0.7,-0.020,-0.042,1.011,27.25,27.50,27.25,27.50,27.25,27.00,27.50,28.00,27.25,27.50,26.50,26.75,27.25,27.25,27.25,27.25,27.50,27.25,27.25,27.25,27.50,27.50,27.50,27.25,27.25,27.25,27.50,27.25,27.50,27.00,26.75,27.00,29.25,29.75,29.50,28.00,26.50,26.25,26.75,27.00,28.25,26.25,28.25,29.25,27.00,26.50,28.00,28.00,28.00,25.50,25.75,25.75,26.00,25.75,26.50,29.75,26.75,25.25,25.25,25.50,25.75,25.25,25.25,27.75
2187752,0,0,5.22,53,0,0.0,0.3,-0.7,-0.017,-0.043,1.002,27.25,27.25,26.75,27.50,27.25,27.00,27.25,27.25,27.25,27.25,27.00,27.25,26.75,27.00,27.25,27.50,27.50,27.75,27.50,27.00,27.00,27.25,26.75,27.00,27.25,27.00,27.50,27.00,27.00,27.00,27.00,27.00,29.75,30.00,29.75,29.00,26.25,25.50,26.50,26.50,27.75,27.75,29.50,27.25,25.75,26.00,28.25,27.50,26.25,25.50,25.75,25.00,25.50,25.50,26.75,30.25,26.00,26.00,25.00,25.25,25.50,25.50,25.25,28.25
2187852,0,0,5.22,54,0,0.0,0.2,-0.7,-0.026,-0.044,1.011,26.75,26.75,27.00,27.00,27.25,27.75,27.00,27.25,27.00,27.50,27.25,26.75,26.75,27.00,27.00,27.50,27.00,27.75,27.50,27.00,26.75,27.00,27.25,26.75,27.50,28.50,28.50,26.50,26.75,26.75,26.50,26.50,29.75,30.25,28.50,26.25,26.25,25.75,26.75,27.00,27.75,27.50,26.25,25.50,25.00,26.25,28.25,27.75,26.25,25.50,25.50,25.25,25.00,25.50,26.75,29.75,25.75,25.00,24.75,25.50,25.00,25.50,25.00,27.50
2187952,0,0,5.22,57,0,0.1,0.3,-0.7,-0.018,-0.043,0.995,27.50,27.50,27.25,27.00,27.25,27.00,27.00,27.50,27.50,27.75,26.75,27.00,26.75,27.00,27.00,26.75,27.50,27.50,26.50,27.00,26.75,27.25,27.25,27.00,28.00,29.00,27.25,26.75,27.25,26.50,26.50,27.00,30.50,29.25,25.75,25.50,26.50,26.25,26.75,26.25,28.75,26.25,25.50,25.75,25.75,26.25,28.50,27.75,26.75,25.25,25.50,25.50,25.75,25.50,27.00,29.75,26.00,25.25,25.00,25.25,26.00,25.75,25.25,27.75
2188052,0,0,5.22,54,0,0.1,0.3,-0.7,-0.022,-0.041,1.005,27.50,27.50,27.25,27.00,27.25,27.00,27.00,27.50,27.50,27.75,26.75,27.00,26.75,27.00,27.00,26.75,27.50,27.50,26.50,27.00,26.75,27.25,27.25,27.00,28.00,29.00,27.25,26.75,27.25,26.50,26.50,27.00,30.50,29.25,25.75,25.50,26.50,26.25,26.75,26.25,28.75,26.25,25.50,25.75,25.75,26.25,28.50,27.75,26.75,25.25,25.50,25.50,25.75,25.50,27.00,29.75,26.00,25.25,25.00,25.25,26.00,25.75,25.25,27.75
2188152,0,0,5.22,53,0,0.1,0.2,-0.7,-0.026,-0.042,1.006,27.25,27.75,27.00,27.25,27.25,27.50,27.25,27.25,27.75,27.25,26.75,26.25,27.00,27.00,27.25,28.00,27.75,27.25,26.75,26.75,27.00,27.25,27.00,26.75,29.25,27.25,26.75,26.75,27.25,26.75,26.50,26.50,30.00,27.25,25.75,25.75,26.25,26.00,26.50,26.25,28.75,25.75,25.00,25.75,25.50,26.50,28.25,28.00,26.00,25.75,25.75,25.25,25.75,26.00,27.00,30.00,25.75,26.00,25.50,25.50,25.00,25.50,25.25,27.75
2188252,0,0,5.22,54,0,0.0,0.3,-0.7,-0.023,-0.042,1.007,27.25,27.50,26.75,27.75,27.50,27.50,26.75,27.50,27.75,27.00,26.50,27.25,27.00,27.25,27.25,27.25,26.75,27.00,27.00,26.75,27.25,26.75,26.75,27.00,26.25,26.00,27.00,26.75,27.00,26.75,26.75,27.25,28.25,25.50,25.50,25.75,26.00,25.75,26.50,26.75,28.50,25.50,25.75,25.25,25.75,26.00,28.00,27.50,26.75,25.50,25.75,25.00,25.25,25.25,26.50,30.00,25.75,25.00,25.25,25.50,25.25,25.50,25.50,28.75
2188352,0,0,5.22,57,0,-0.1,0.3,-0.7,-0.019,-0.041,1.006,27.00,27.50,26.75,27.50,27.25,27.00,27.25,27.50,26.75,27.00,27.00,26.75,26.75,26.75,27.25,27.25,27.25,27.00,26.50,26.75,26.75,27.00,27.00,26.75,26.25,26.25,27.00,26.75,27.25,27.00,26.75,27.00,26.00,25.50,25.50,25.75,25.75,25.75,27.00,26.00,26.50,25.25,25.25,25.25,26.00,26.50,28.00,28.25,26.00,25.50,25.75,25.25,25.25,25.75,26.75,29.75,26.50,25.25,25.25,25.75,25.25,25.00,25.25,28.00
2188452,0,0,5.22,54,0,-0.0,0.3,-0.7,-0.019,-0.043,1.006,26.50,26.75,26.50,27.25,27.00,27.25,27.25,27.25,27.00,27.50,26.50,26.50,26.50,26.25,27.00,27.00,26.75,27.00,26.50,27.00,27.00,27.00,26.75,26.75,26.50,25.75,26.50,26.75,27.00,26.75,26.25,26.75,25.75,25.25,25.25,25.75,25.75,25.75,26.50,26.00,26.75,25.00,25.50,25.50,25.00,25.75,28.25,27.75,25.75,25.75,25.25,25.25,25.25,25.00,26.00,30.00,26.50,25.00,24.75,25.25,25.25,25.50,25.50,27.75
2188552,0,0,5.22,53,0,-0.1,0.3,-0.7,-0.020,-0.043,1.005,27.25,27.25,27.00,27.00,27.25,27.25,27.25,27.25,27.25,27.00,26.75,27.00,27.00,27.50,26.75,27.00,26.50,26.75,26.75,27.00,26.75,27.75,27.50,27.25,26.50,26.50,26.75,26.50,27.25,27.25,26.25,26.75,25.50,25.75,25.50,25.75,26.25,25.75,26.50,26.50,27.25,25.25,25.75,25.75,25.50,26.00,28.25,27.75,26.50,26.00,25.50,25.25,26.00,26.00,26.75,29.75,27.50,25.50,25.50,25.25,25.50,25.25,25.50,27.50
2188652,0,0,5.22,54,0,-0.0,0.3,-0.7,-0.026,-0.042,1.004,26.75,27.00,27.00,27.00,27.50,27.50,27.00,27.25,26.75,26.75,27.00,26.75,26.75,26.75,27.00,27.25,26.75,27.00,26.50,26.75,27.00,27.00,26.75,27.25,26.50,26.25,26.75,26.75,27.25,26.50,27.00,26.50,25.75,25.25,25.50,26.00,26.00,25.50,27.00,26.75,27.75,25.25,25.25,26.00,25.75,26.50,28.00,27.75,27.75,25.75,25.75,25.25,25.25,25.75,27.25,30.00,29.50,28.50,26.50,25.50,25.50,25.75,25.00,27.75
2188752,0,0,5.22,57,0,0.0,0.3,-0.7,-0.023,-0.042,1.001,27.25,27.50,27.00,27.25,27.50,27.25,27.50,27.00,27.25,27.00,27.00,26.75,27.00,27.00,27.00,27.25,27.00,27.25,26.50,27.25,27.25,27.00,27.00,26.75,26.00,26.00,26.75,27.00,27.25,26.75,26.50,27.00,26.00,25.75,25.50,25.75,26.00,26.00,26.75,26.50,29.25,25.75,25.50,26.25,25.75,26.25,28.00,28.25,28.50,28.50,26.25,25.50,25.25,26.00,26.50,30.00,28.25,28.75,28.50,27.75,26.00,25.75,25.25,27.50
2188852,0,0,5.22,54,0,-0.1,0.3,-0.7,-0.016,-0.043,1.004,27.50,27.50,27.00,27.00,27.25,27.00,27.50,27.25,27.25,27.00,27.00,27.00,26.75,27.00,27.00,27.00,27.25,27.00,26.75,27.00,26.75,27.25,27.00,26.75,25.75,26.25,26.75,26.50,27.25,26.75,26.50,26.25,26.00,25.75,25.50,26.00,26.25,25.75,26.25,26.75,30.00,28.50,26.25,25.25,25.75,26.25,28.50,28.25,29.50,29.25,28.75,25.75,25.25,25.75,26.50,29.75,27.75,28.25,28.50,28.50,27.50,27.50,26.75,28.75
2188952,0,0,5.22,53,0,-1.8,-0.1,0.3,-0.033,-0.047,0.996,27.25,27.50,27.25,27.00,27.50,27.25,27.25,27.00,27.00,27.00,26.75,27.25,26.75,27.25,26.75,27.00,26.75,26.75,26.75,27.00,27.00,27.25,27.00,26.75,25.75,26.00,26.75,26.75,27.25,26.75,27.00,27.00,26.00,25.75,25.50,25.75,26.00,25.75,26.75,26.25,28.75,28.50,27.25,26.00,25.50,26.50,28.00,28.00,29.25,30.25,30.00,28.50,26.00,26.00,26.50,30.00,29.00,26.75,28.50,29.00,28.00,27.75,27.50,28.50
2189052,0,0,5.22,54,0,-4.6,-1.7,-1.9,-0.019,-0.018,0.924,27.00,28.00,27.50,27.75,27.50,27.50,27.50,27.25,27.75,27.50,27.00,27.25,27.25,27.00,27.25,27.50,26.75,27.25,26.75,26.75,27.00,27.25,27.50,27.00,26.00,26.50,26.75,26.50,27.75,27.00,27.00,27.00,26.25,25.75,25.75,26.25,26.25,25.75,27.00,27.00,27.50,28.50,28.25,26.25,26.00,27.00,28.25,28.50,29.00,28.75,29.75,29.00,27.75,26.50,27.50,29.00,29.25,28.00,29.00,30.25,29.25,30.00,28.75,30.00
2189152,0,0,5.22,57,0,-3.2,0.6,-1.3,-0.006,-0.103,1.120,27.25,27.50,27.00,27.75,26.75,27.25,27.50,27.25,27.50,27.00,27.25,26.75,27.00,26.75,27.00,27.75,26.75,27.25,26.75,27.00,27.25,27.00,27.50,27.00,26.25,26.50,27.00,27.00,27.50,27.00,26.75,27.00,26.00,26.00,25.75,25.75,26.25,25.75,27.00,27.00,27.00,28.25,28.50,27.25,25.75,26.50,28.50,28.00,29.25,29.00,29.00,28.50,28.00,27.25,27.75,29.00,29.50,29.00,28.50,30.25,29.50,29.50,29.50,30.25
2189252,0,0,5.22,54,0,-1.6,-0.1,-0.2,0.010,-0.073,1.014,27.00,27.50,27.00,27.50,27.25,27.00,27.50,27.00,27.25,27.50,27.00,27.00,26.75,27.00,27.25,27.25,27.00,27.25,26.50,27.00,27.25,27.50,27.00,26.75,26.25,26.75,26.75,26.75,27.00,26.75,27.00,26.75,25.75,25.75,25.75,26.25,26.75,26.00,26.75,27.00,26.25,28.25,29.00,28.00,27.00,27.25,28.50,28.25,28.50,28.50,29.50,29.00,28.75,28.50,28.25,28.75,29.00,28.75,28.25,28.50,29.75,29.75,29.75,30.00
2189352,0,0,5.22,53,0,3.6,-1.2,-1.2,-0.133,-0.105,1.152,27.00,27.25,27.00,27.00,27.50,27.50,27.25,27.75,27.25,27.25,27.00,27.25,27.50,26.75,27.50,27.25,27.00,27.25,26.75,27.00,27.25,27.25,27.50,26.75,26.00,26.50,26.75,26.75,27.00,27.25,27.50,27.50,26.25,25.50,25.75,26.00,26.25,26.00,26.50,27.00,26.25,27.50,29.25,29.50,29.00,28.75,28.50,28.25,28.00,28.75,29.00,28.75,29.00,28.75,29.00,29.00,29.00,29.25,28.25,29.00,29.50,29.75,29.50,29.75
2189452,0,0,5.22,54,0,-2.4,0.7,-0.2,0.063,-0.069,1.029,27.50,27.75,27.25,27.25,27.75,28.00,27.50,27.50,26.75,27.25,26.75,27.25,26.75,27.25,27.00,27.50,26.75,27.50,26.75,26.75,27.50,27.00,27.50,26.75,25.75,26.25,27.00,27.00,27.25,27.00,27.00,27.25,25.75,25.75,25.75,26.25,27.00,26.25,26.75,27.00,26.75,26.75,28.75,29.50,29.25,29.25,28.75,28.50,28.50,29.75,29.75,29.75,29.25,29.50,29.75,30.00,29.25,29.00,27.25,28.00,28.25,29.00,29.25,29.50
2189552,0,0,5.22,57,0,1.3,-0.4,-0.5,-0.025,-0.062,0.986,27.25,27.50,27.00,27.50,27.50,27.75,28.00,27.75,27.50,27.50,27.00,27.50,27.25,27.25,27.00,28.00,27.00,27.50,27.25,26.75,26.50,27.50,27.75,27.50,26.00,26.50,27.25,27.00,27.75,27.25,27.25,27.50,25.75,25.75,26.50,27.50,27.75,27.75,28.75,28.50,26.50,27.25,28.75,29.00,28.75,29.25,29.50,30.25,28.50,30.00,30.25,30.00,29.75,30.25,30.75,31.00,29.50,30.00,27.25,27.75,27.00,27.00,27.00,29.75
2189652,0,0,5.22,54,0,-1.7,-1.1,-1.2,-0.050,-0.032,0.946,27.25,27.00,27.25,27.50,27.50,28.00,27.25,27.50,27.50,27.50,27.00,27.25,27.25,27.50,27.50,27.75,27.25,27.75,27.00,27.25,26.75,27.75,27.75,27.25,26.50,26.50,27.25,26.75,27.75,27.50,27.50,28.00,26.25,26.50,26.75,28.25,28.50,29.00,29.00,29.25,26.50,28.75,29.50,30.00,30.00,30.50,30.25,30.50,29.00,30.00,30.25,30.00,29.75,29.75,29.25,30.50,29.25,29.50,27.25,27.00,26.50,26.75,25.75,29.75
2189752,0,0,5.22,53,0,4.4,0.0,-2.3,-0.071,-0.055,1.039,27.50,27.75,27.25,27.75,27.75,27.75,28.00,28.25,27.75,27.25,27.50,27.50,27.00,28.00,27.50,28.25,27.25,27.50,27.50,27.25,27.50,27.25,28.00,27.25,26.50,26.75,27.25,27.25,27.50,27.50,27.75,29.00,26.25,26.25,27.00,28.25,28.75,28.75,28.75,29.50,26.50,28.75,30.00,30.25,30.25,30.50,31.00,30.75,28.75,29.50,30.25,29.75,29.50,29.25,29.25,30.25,29.50,29.00,27.00,26.75,26.75,26.50,25.75,29.50
2189852,0,0,5.22,54,0,2.6,0.9,-2.6,-0.009,-0.026,0.990,27.25,27.50,27.25,27.50,28.00,27.75,27.50,27.50,27.25,28.00,27.25,27.75,27.75,28.00,27.50,28.00,27.25,27.75,27.25,27.25,27.25,27.75,27.75,27.25,26.25,26.50,27.50,27.25,27.50,28.00,27.75,29.00,26.50,26.50,27.50,28.00,28.50,28.75,29.00,29.75,27.00,28.75,30.00,30.50,30.50,30.50,30.25,30.75,28.75,29.50,30.25,30.00,29.25,29.00,28.75,30.50,29.50,28.75,27.00,27.00,26.25,26.50,26.25,29.50
2189952,0,0,5.22,57,0,0.3,0.8,0.0,-0.033,-0.046,1.005,27.00,27.75,27.25,27.50,27.50,27.75,27.00,27.25,27.00,27.25,27.75,27.25,27.00,27.25,26.75,27.50,27.25,27.50,27.00,27.00,27.50,27.50,27.25,27.50,26.25,26.25,27.25,27.00,27.75,27.50,27.25,28.50,26.00,25.75,27.00,27.50,28.75,28.50,29.00,29.50,26.75,28.75,29.50,30.00,30.25,30.75,30.25,30.00,28.25,29.75,30.25,29.75,29.00,28.75,28.75,30.25,29.00,29.00,26.25,26.25,26.00,25.75,26.00,29.50
2190052,0,0,5.22,54,0,2.4,2.8,3.5,0.090,0.099,1.102,27.50,27.75,27.50,27.50,28.00,28.25,28.00,27.50,27.75,27.50,27.25,27.50,27.75,27.50,27.50,28.25,27.00,27.50,27.50,27.50,28.00,27.75,27.75,27.75,26.25,26.75,27.50,27.00,28.25,27.50,27.75,29.00,26.25,26.00,27.00,28.00,28.75,28.50,29.25,29.75,26.50,29.00,30.25,30.75,30.50,30.50,30.50,30.75,28.50,29.75,30.00,29.75,29.25,28.75,29.00,29.75,29.50,29.00,26.75,26.75,26.50,26.00,26.25,29.25
2190152,0,0,5.22,53,0,-0.0,-0.1,-2.5,-0.008,-0.027,1.021,28.25,27.75,27.25,27.50,28.00,28.00,27.75,28.25,27.25,27.75,27.25,27.25,27.50,27.75,27.75,27.50,27.00,27.00,27.25,27.50,27.50,27.50,27.75,27.25,26.50,26.50,27.25,27.25,27.50,27.50,27.50,28.50,25.75,26.25,27.00,28.00,28.25,28.25,28.75,29.50,27.00,28.25,29.75,30.25,30.25,30.75,30.00,30.50,28.25,29.75,30.00,30.00,29.50,29.50,29.25,30.25,29.25,29.00,27.25,26.75,26.25,26.50,25.75,29.50
2190252,0,0,5.22,54,0,1.6,1.3,-0.7,-0.002,-0.014,1.032,27.50,27.75,27.50,27.50,27.75,27.75,28.00,27.50,27.00,27.50,27.25,27.25,27.25,28.00,27.50,28.00,26.75,27.50,27.25,27.50,27.00,27.50,28.00,27.75,26.50,26.50,27.75,27.25,27.75,27.50,27.25,27.75,26.25,26.50,26.75,27.50,28.00,28.25,28.50,28.75,26.25,28.00,29.75,30.25,30.25,31.00,30.75,30.50,28.75,29.75,30.25,29.75,29.25,29.25,29.25,30.25,29.75,29.25,27.50,26.75,26.50,26.25,26.50,29.50
2190352,0,0,5.22,45,0,-2.8,2.5,1.4,0.081,-0.000,0.872,27.25,27.50,27.50,28.25,27.75,27.75,27.50,27.75,27.00,27.50,27.25,27.25,27.25,27.50,27.25,28.25,27.25,27.50,27.50,27.75,27.75,28.00,28.00,27.75,26.50,26.50,27.25,27.25,27.75,27.75,27.00,28.25,26.25,26.00,26.50,27.25,27.50,27.75,28.25,28.75,27.25,27.00,29.75,30.75,30.25,30.25,30.25,30.75,28.00,30.00,30.50,30.00,29.50,29.25,29.75,30.25,29.75,29.25,27.50,27.25,27.00,26.75,26.75,29.75
2190452,0,0,5.22,42,0,-0.9,0.3,-1.1,-0.019,-0.021,1.057,27.25,27.50,27.25,27.25,27.25,27.75,27.25,27.75,27.25,27.25,27.50,27.25,27.25,27.50,27.75,28.00,26.25,27.50,27.00,27.25,27.25,27.50,27.50,27.50,26.00,26.25,26.75,26.75,27.50,27.50,27.00,27.50,25.75,25.75,26.50,27.25,27.50,27.25,28.75,29.00,26.25,25.50,29.25,29.75,30.25,30.25,30.00,30.50,27.00,29.25,30.25,29.75,29.50,29.50,29.25,29.75,29.50,29.50,27.25,26.50,26.50,26.00,26.00,29.25
2190552,0,0,5.22,42,0,-0.1,0.3,-2.2,-0.016,-0.035,0.996,27.25,27.50,27.25,27.25,27.25,27.75,27.25,27.75,27.25,27.25,27.50,27.25,27.25,27.50,27.75,28.00,26.25,27.50,27.00,27.25,27.25,27.50,27.50,27.50,26.00,26.25,26.75,26.75,27.50,27.50,27.00,27.50,25.75,25.75,26.50,27.25,27.50,27.25,28.75,29.00,26.25,25.50,29.25,29.75,30.25,30.25,30.00,30.50,27.00,29.25,30.25,29.75,29.50,29.50,29.25,29.75,29.50,29.50,27.25,26.50,26.50,26.00,26.00,29.25
2190652,0,0,5.22,42,0,-0.3,0.2,-0.6,-0.033,-0.041,1.005,27.50,27.75,27.50,27.75,28.00,27.75,27.50,28.00,27.25,27.50,27.25,27.25,27.50,27.50,27.25,28.00,27.25,27.25,27.50,27.25,27.25,28.00,27.75,27.75,26.25,26.50,27.25,26.75,27.75,27.50,27.25,27.50,25.75,26.00,26.50,26.75,27.75,27.50,28.25,28.75,26.50,27.00,29.75,30.25,30.00,30.50,30.50,30.50,27.75,29.75,30.00,29.75,29.25,29.50,29.75,30.50,29.50,29.25,27.50,26.75,26.50,26.50,26.25,29.25
2190752,0,0,5.22,42,0,0.1,0.3,-2.0,-0.014,-0.040,1.006,28.00,27.25,27.75,27.50,27.50,27.75,27.75,27.75,27.25,27.75,27.25,27.25,27.25,27.50,27.00,27.50,26.75,27.25,27.50,27.25,27.50,27.50,27.50,27.25,26.50,27.00,27.25,27.00,27.50,27.25,27.00,27.00,26.00,25.75,26.25,27.00,27.50,26.75,27.50,27.75,26.75,27.75,29.50,29.50,29.75,29.75,30.00,30.25,27.75,29.75,30.25,30.00,29.50,30.25,30.50,30.50,29.75,29.50,27.25,27.00,27.25,27.25,27.00,29.75
2190852,0,0,5.22,42,0,0.5,0.2,-1.5,-0.028,-0.028,1.002,27.00,28.00,27.00,27.50,27.50,27.50,27.75,27.00,27.25,27.75,27.50,27.00,27.00,27.75,27.50,27.75,27.00,27.50,27.50,27.25,27.75,27.75,27.75,27.75,26.25,26.75,27.50,27.25,27.75,27.50,27.00,27.25,26.25,26.25,27.00,27.00,27.00,26.00,27.25,27.50,26.50,28.00,29.50,29.50,29.75,29.50,29.75,30.00,28.25,29.75,30.00,30.00,30.00,30.00,30.50,30.75,29.50,28.50,26.75,27.25,28.75,30.25,29.75,30.00
2190952,0,0,5.22,42,0,3.5,-1.9,-4.6,-0.138,-0.026,0.890,27.50,27.75,27.25,27.75,27.50,28.00,27.50,28.00,27.00,28.00,27.50,27.25,27.50,27.75,27.75,27.75,26.75,27.50,27.50,27.00,27.25,27.50,27.50,27.25,26.25,26.75,27.25,27.00,27.25,27.25,26.75,27.25,26.00,26.75,27.00,26.25,26.50,26.00,27.25,27.50,27.75,30.00,30.00,28.00,26.50,26.50,29.00,28.25,29.75,29.50,29.75,30.00,29.00,27.75,29.00,30.00,29.75,27.75,29.50,30.50,29.75,30.00,29.75,30.25
2191052,0,0,5.22,42,0,-1.3,0.6,-0.1,-0.085,-0.049,1.059,27.00,27.50,27.00,27.50,27.00,27.25,27.50,27.25,27.25,27.50,26.75,27.25,26.75,27.00,26.75,26.75,27.25,27.75,27.00,27.00,27.00,27.00,27.00,27.00,26.25,26.25,26.50,26.25,27.25,27.00,27.25,27.50,26.25,26.75,25.25,26.25,26.50,25.75,26.25,26.75,29.00,29.25,27.00,25.75,26.00,26.50,28.50,28.50,29.75,29.75,28.50,26.25,25.75,25.75,27.00,30.25,31.00,30.00,29.25,29.50,28.25,26.75,26.00,29.50
2191152,0,0,5.22,42,0,-0.0,0.6,-0.5,-0.041,-0.044,1.009,27.25,27.75,27.25,27.25,27.50,27.50,27.50,27.75,27.75,28.00,26.75,27.25,27.25,27.00,27.00,27.75,27.50,27.75,26.75,27.00,27.50,27.50,27.25,27.50,27.00,27.25,27.00,27.00,27.25,27.50,27.00,27.25,28.00,26.00,26.00,25.75,26.00,25.50,26.75,26.75,29.75,26.75,25.75,26.00,26.00,26.50,28.25,28.00,29.75,27.75,26.25,25.75,26.00,25.75,27.25,30.75,30.50,30.25,29.25,27.00,26.00,26.00,26.00,29.00
2191252,0,0,5.22,42,0,-0.0,0.3,-2.5,0.032,0.112,1.019,28.00,28.00,27.50,27.50,27.50,27.25,27.50,27.75,27.25,27.25,26.75,26.75,27.00,27.25,27.50,27.25,27.00,27.00,27.00,27.00,27.00,27.50,27.00,26.75,26.50,26.25,27.25,26.50,27.50,27.25,26.50,27.25,26.75,25.50,26.00,25.75,26.25,25.75,27.00,26.50,28.50,25.50,25.25,25.75,26.00,26.50,28.00,28.75,29.25,26.75,26.00,25.50,25.50,25.50,27.00,30.00,29.50,26.75,25.75,25.75,25.50,25.50,25.25,28.50
2191352,0,0,5.22,42,0,-0.2,0.4,-0.2,-0.043,-0.046,1.006,27.25,27.00,26.75,27.50,27.25,27.25,28.00,27.75,27.00,27.00,27.50,27.00,27.50,27.25,27.50,28.00,27.00,27.50,26.75,27.00,27.25,27.50,27.25,27.00,26.00,26.00,27.25,27.00,27.25,26.75,27.00,26.50,25.75,25.50,25.50,26.00,26.25,26.00,26.75,27.25,27.25,25.50,25.75,25.75,26.25,26.25,28.25,28.25,27.50,25.25,25.50,25.50,25.75,26.00,26.50,30.25,26.50,25.75,25.50,25.75,25.75,25.25,25.50,28.75
2191452,0,0,5.22,43,0,0.0,0.5,-0.4,-0.053,-0.063,1.013,27.00,27.25,27.50,27.25,27.25,27.50,27.50,27.75,27.25,27.25,27.00,26.75,27.00,27.25,26.75,28.00,27.25,27.00,26.75,27.00,27.25,27.50,27.50,27.00,26.00,26.25,27.25,26.75,27.00,27.25,27.25,26.75,25.75,25.50,25.75,26.00,26.25,25.50,27.00,26.75,26.75,25.75,25.50,25.50,25.75,26.25,28.50,28.00,26.00,25.25,26.25,25.50,25.50,25.75,27.00,30.25,25.75,25.50,25.50,26.00,25.50,25.25,25.50,28.50
2191552,0,0,5.22,42,0,2.9,0.5,-0.4,-0.075,0.029,0.971,27.00,27.00,26.75,27.75,27.00,27.00,26.75,27.50,27.25,27.00,26.75,27.00,27.00,27.50,27.00,27.50,26.75,27.00,26.50,26.75,27.00,27.25,27.25,26.75,25.75,26.00,26.50,26.50,27.00,26.75,26.75,27.00,25.75,25.50,25.00,26.00,26.00,25.25,26.25,26.50,25.50,25.25,25.50,25.75,25.50,26.00,28.25,27.75,25.75,25.25,25.75,25.75,25.75,25.25,26.50,29.50,26.00,25.25,24.75,25.50,25.75,25.25,24.75,28.75
2191652,0,0,5.22,42,0,0.3,-0.1,-1.2,-0.087,-0.042,1.005,27.25,27.25,27.00,27.75,27.50,27.25,27.25,27.75,27.00,27.25,27.00,26.75,27.00,27.25,27.50,27.50,27.00,27.00,26.75,27.00,27.00,27.50,27.25,27.25,26.00,26.00,27.00,26.75,27.75,27.25,26.75,27.50,25.50,25.50,25.50,25.75,26.25,25.75,27.00,27.00,26.00,25.50,26.00,25.75,26.00,26.50,28.50,28.00,26.25,25.25,26.00,25.25,26.00,26.00,26.75,30.50,25.75,25.50,26.00,25.50,26.00,25.00,25.50,28.25
2191752,0,0,5.22,42,0,0.2,0.6,0.7,-0.011,-0.028,0.997,27.00,27.25,27.50,27.25,27.75,27.25,27.50,28.00,27.25,27.25,26.75,27.25,27.25,27.50,27.50,27.25,27.00,27.25,26.75,27.00,26.75,27.50,27.50,27.25,26.00,26.00,27.00,27.00,27.50,27.00,27.00,27.00,26.00,25.75,25.50,25.75,26.25,25.75,26.75,26.75,26.00,25.50,25.50,25.75,26.00,26.25,28.25,27.25,25.75,25.25,25.75,25.50,25.50,25.75,26.75,30.00,26.25,25.50,25.00,25.50,25.50,26.00,25.50,29.25
2191852,0,0,5.22,43,0,-27.0,-4.3,12.9,-0.064,0.041,0.976,27.50,27.25,27.00,27.00,27.50,27.00,27.00,27.25,27.25,27.25,26.50,26.75,27.25,27.00,27.50,27.50,27.00,27.25,27.00,27.25,27.25,27.50,27.50,27.50,25.75,26.50,26.75,26.75,27.25,27.00,27.00,27.25,25.50,25.25,25.50,25.75,26.00,26.00,26.75,26.75,25.75,25.50,25.25,25.50,25.50,26.25,28.50,28.25,25.75,25.50,25.75,25.50,25.25,25.50,27.25,30.25,25.75,25.50,25.50,25.25,25.25,25.75,25.00,28.75
2191952,0,0,5.22,42,0,-48.9,-24.1,31.0,-0.001,-0.101,1.082,27.00,27.50,27.00,27.25,27.25,27.50,27.75,27.50,27.50,26.75,26.50,27.00,26.75,27.25,27.25,27.25,26.75,27.25,27.25,27.25,27.25,27.25,27.25,27.50,26.00,26.75,27.25,27.00,27.25,26.75,26.75,26.75,25.50,25.25,25.50,26.00,26.50,26.00,27.25,26.50,26.00,25.00,25.50,26.00,25.75,26.75,28.00,27.25,25.75,25.50,25.25,25.75,25.25,25.50,27.50,30.75,25.50,25.25,25.00,25.50,25.50,25.75,26.00,29.75
2192053,0,0,5.22,44,1,8.2,28.0,25.0,0.085,-0.136,1.061,26.75,26.75,26.25,27.25,27.00,27.25,27.25,27.25,27.00,27.50,26.75,26.75,27.00,27.25,27.00,27.50,26.75,27.00,26.50,27.00,26.75,27.00,26.75,27.00,26.50,27.00,27.00,26.50,27.00,26.75,26.75,27.00,25.50,26.00,26.25,26.50,27.00,26.50,26.75,26.50,25.50,25.50,25.50,25.50,25.50,25.75,26.75,27.00,25.50,25.00,25.00,25.25,25.25,27.00,28.50,27.50,25.50,25.00,25.00,25.75,25.25,25.75,27.00,29.75
2192152,0,0,5.22,44,1,7.2,60.5,8.3,-0.122,-0.035,1.042,27.50,27.50,27.00,27.25,27.00,27.50,27.50,27.25,27.25,27.00,26.50,26.75,27.00,27.25,27.00,27.75,27.00,27.00,26.75,27.25,26.75,27.50,27.50,27.00,26.75,26.75,27.00,27.25,27.25,27.00,27.25,26.75,25.75,26.25,26.75,27.00,27.00,27.25,26.75,26.25,25.50,25.25,25.75,26.00,25.75,26.50,26.75,27.00,25.50,25.50,25.75,25.50,25.75,27.50,29.50,29.25,25.75,25.25,25.25,26.25,25.75,25.75,27.25,30.25
2192252,0,0,5.22,45,1,-23.4,40.1,21.0,-0.216,-0.046,1.045,27.00,27.50,27.00,27.75,27.50,27.50,27.25,27.75,27.25,27.00,27.00,27.00,27.00,27.25,27.00,27.50,27.25,27.25,26.75,27.50,27.25,27.75,27.50,27.00,27.00,27.00,27.00,27.00,27.25,27.00,26.75,26.75,25.00,26.00,26.50,26.50,26.75,26.25,27.25,26.50,26.00,25.50,25.75,26.00,26.00,27.00,27.25,27.00,25.75,25.50,25.50,25.25,25.50,26.50,28.25,31.00,25.75,26.00,25.00,25.50,26.00,25.50,25.75,29.75
2192352,0,0,5.22,44,1,5.2,26.2,22.3,-0.214,-0.042,0.978,27.00,27.00,27.50,27.50,27.50,27.75,27.75,27.75,27.25,27.25,27.25,27.50,27.50,27.00,26.75,27.50,27.25,27.50,27.00,27.00,27.50,27.25,26.75,26.50,27.00,27.75,27.75,27.00,27.50,27.25,26.50,27.00,25.50,26.25,26.75,26.75,26.75,26.50,28.00,26.75,25.50,25.25,25.75,25.75,25.50,27.75,28.00,28.00,25.75,25.00,25.50,25.00,25.50,26.25,27.75,30.75,25.50,25.25,25.50,25.50,25.50,25.50,26.00,29.00
2192452,0,0,5.22,44,1,36.8,39.1,18.8,-0.209,-0.048,0.892,27.25,27.75,27.25,27.75,27.75,28.25,27.75,27.75,27.50,27.50,27.25,27.25,27.25,27.50,26.50,26.75,27.75,28.25,27.75,27.50,27.50,27.25,27.00,26.75,27.00,27.50,27.25,26.75,27.00,27.00,26.75,26.50,25.25,26.25,26.75,26.50,26.25,26.75,27.25,26.75,25.75,25.00,25.75,26.00,26.25,28.50,29.00,31.75,25.00,25.50,25.25,25.50,25.25,26.25,27.50,30.00,25.75,25.50,25.00,25.50,25.25,25.50,25.00,27.25
2192552,0,0,5.22,44,1,47.5,50.7,2.4,-0.294,-0.060,0.955,27.50,28.00,27.25,27.25,27.50,27.50,26.75,27.00,28.50,27.75,27.00,27.75,27.00,27.25,26.75,27.00,27.00,27.25,27.00,27.00,26.75,27.00,27.00,26.50,25.75,26.75,27.25,26.25,26.75,28.00,27.00,27.25,25.25,25.75,25.50,26.25,26.50,28.00,29.75,31.25,25.25,24.75,25.75,25.50,26.00,26.25,27.50,29.50,24.50,25.00,25.25,25.75,25.00,25.50,25.75,27.50,25.25,25.25,25.50,25.25,25.50,25.25,25.25,25.75
2192652,0,0,5.22,45,1,57.2,20.9,-8.9,-0.334,0.094,0.816,28.25,28.25,27.25,28.00,27.50,27.75,27.50,26.75,27.50,27.00,27.50,27.00,27.00,27.25,26.75,27.00,25.75,27.50,27.00,26.75,26.75,28.75,27.25,27.00,25.75,25.75,26.00,25.50,25.50,27.75,29.25,31.75,25.00,25.25,26.00,26.00,26.00,26.50,27.75,28.75,25.75,25.00,25.50,25.75,25.50,25.50,26.25,26.50,25.50,25.75,25.50,25.25,25.75,25.00,25.50,26.25,25.25,24.75,25.25,25.25,25.00,24.75,24.75,25.75
2192752,0,0,5.22,44,1,28.1,17.2,-10.7,-0.382,0.070,0.905,27.25,27.75,27.75,27.50,27.25,27.25,27.25,27.25,26.50,27.25,27.00,26.75,26.50,28.25,27.50,27.25,25.50,25.50,26.25,25.75,26.00,27.25,28.50,30.50,25.50,25.75,25.50,25.50,25.75,26.75,28.25,28.25,25.25,25.00,25.75,25.50,25.75,25.50,26.50,26.50,25.50,25.00,25.50,25.75,25.50,25.75,25.25,26.25,25.75,25.25,25.50,25.25,25.50,25.50,25.50,25.75,25.75,25.00,24.75,25.00,25.25,25.25,24.75,25.25
2192852,0,0,5.22,45,1,54.2,25.7,-9.3,-0.470,0.174,0.681,26.25,27.25,27.00,27.25,27.00,27.50,28.00,26.75,25.50,25.75,26.25,26.00,26.25,26.50,27.50,28.00,25.00,26.25,25.50,26.00,26.00,26.50,29.00,28.75,25.25,25.25,25.25,25.25,25.75,25.50,25.75,27.25,25.00,25.25,25.50,25.25,26.00,25.75,25.50,26.00,25.50,25.25,25.25,25.50,25.25,25.50,25.00,25.50,25.25,24.75,25.00,25.00,24.50,25.25,25.25,25.75,25.50,24.25,24.75,25.25,25.25,25.25,25.00,25.75
2192952,0,0,5.22,44,1,1.9,-37.4,-36.3,-0.517,0.118,0.853,26.00,26.25,26.50,27.00,26.25,26.75,27.75,27.25,25.25,25.75,25.25,25.75,25.75,25.50,28.50,28.75,25.00,25.50,25.25,25.75,25.75,25.75,25.50,27.00,25.25,25.25,25.00,25.00,26.00,25.50,25.00,26.25,25.00,25.25,25.00,25.25,25.75,25.75,25.50,25.25,25.25,25.25,25.25,25.25,25.50,25.50,25.25,25.50,25.75,25.25,25.00,24.75,24.75,25.00,25.25,25.75,25.50,25.50,24.75,25.00,25.50,25.25,24.75,24.75
2193052,0,0,5.22,45,1,22.3,-7.8,-24.8,-0.531,0.081,0.861,25.25,25.00,25.50,26.50,26.25,26.00,25.50,27.25,25.75,25.00,25.50,25.75,25.50,25.25,25.50,28.00,24.25,25.00,24.75,25.50,25.50,25.50,25.00,25.50,24.75,24.75,25.00,25.25,25.50,25.50,25.25,25.50,24.50,25.00,25.25,25.00,25.50,25.25,25.50,24.50,25.00,24.75,25.25,25.25,25.50,25.25,25.00,25.25,25.00,25.00,25.50,24.75,24.25,25.25,25.25,25.00,25.50,24.75,24.25,25.00,24.50,25.25,24.50,24.25
2193152,0,0,5.22,44,1,7.9,-24.0,-13.4,-0.568,0.119,0.857,25.25,25.00,25.50,26.50,26.25,26.00,25.50,27.25,25.75,25.00,25.50,25.75,25.50,25.25,25.50,28.00,24.25,25.00,24.75,25.50,25.50,25.50,25.00,25.50,24.75,24.75,25.00,25.25,25.50,25.50,25.25,25.50,24.50,25.00,25.25,25.00,25.50,25.25,25.50,24.50,25.00,24.75,25.25,25.25,25.50,25.25,25.00,25.25,25.00,25.00,25.50,24.75,24.25,25.25,25.25,25.00,25.50,24.75,24.25,25.00,24.50,25.25,24.50,24.25
2193252,0,0,5.22,44,1,0.5,-29.4,-7.2,-0.508,0.138,0.919,25.25,25.75,25.25,26.00,26.25,26.00,25.00,26.50,25.25,25.00,25.00,25.25,25.50,25.00,24.75,25.75,24.75,25.00,24.75,25.00,25.25,25.75,25.50,24.75,25.00,24.75,25.00,25.00,25.25,25.25,25.50,24.75,25.00,25.00,24.75,25.50,25.75,25.25,25.75,25.50,25.25,25.25,25.50,25.25,24.75,25.50,25.25,25.00,24.75,24.50,25.00,24.75,24.75,25.00,25.00,25.00,25.00,25.00,24.75,25.00,25.00,25.25,24.75,25.00
2193352,0,0,5.22,44,1,-8.1,-23.5,-30.8,-0.393,0.162,1.049,25.50,25.50,24.75,25.50,26.00,25.75,25.25,25.75,25.00,25.25,25.00,25.25,25.25,25.50,24.75,24.75,24.25,25.00,25.00,25.25,25.00,25.75,25.25,24.75,24.50,24.75,25.25,25.00,25.00,25.50,25.25,25.75,24.75,24.75,25.00,25.00,25.50,25.00,26.00,25.25,25.50,24.75,25.50,25.25,25.00,25.25,25.25,25.50,25.50,25.00,25.00,25.00,24.50,24.75,25.00,25.00,25.25,24.75,25.00,25.00,25.00,25.00,25.00,24.25
2193452,0,0,5.22,45,1,-13.0,-27.1,-49.3,-0.297,0.122,1.038,25.00,25.25,25.00,25.50,26.00,25.50,25.00,24.50,24.75,24.75,25.00,25.25,25.25,25.00,25.25,24.75,24.75,25.00,24.75,25.00,25.25,25.50,25.50,24.75,25.00,25.25,25.25,24.50,25.25,25.50,25.00,25.75,25.00,25.25,25.00,25.00,25.25,25.00,25.50,25.25,26.00,24.75,25.00,25.00,25.00,25.50,25.75,25.25,25.75,24.50,25.00,24.75,24.50,24.75,24.75,24.50,24.75,24.75,25.00,25.00,25.00,24.75,24.00,24.75
2193552,0,0,5.22,44,1,-17.5,-31.1,-46.7,-0.075,0.152,1.151,25.50,25.00,24.75,25.25,25.50,25.50,25.00,25.00,25.25,24.75,24.50,25.00,25.00,25.50,24.50,24.50,24.50,25.25,24.50,24.75,25.25,25.50,25.00,25.25,25.00,24.75,25.25,25.00,25.50,24.75,25.00,25.25,24.75,24.75,24.75,25.00,25.00,25.25,25.75,25.50,26.00,24.75,24.75,25.25,24.75,25.25,25.25,25.00,25.00,25.00,25.00,24.50,24.25,24.75,25.25,25.00,25.00,25.00,24.50,24.75,24.50,25.00,24.25,24.75
2193652,0,0,5.22,44,1,-4.7,8.5,-82.7,-0.123,0.110,1.147,24.75,24.75,24.75,24.75,25.25,25.00,25.25,25.25,24.75,25.00,24.75,24.75,24.75,25.00,24.75,25.25,24.00,24.25,24.25,24.75,25.00,25.25,24.75,24.50,25.00,24.50,24.75,24.25,24.75,24.75,24.75,24.75,24.50,24.50,24.50,24.50,24.75,24.25,24.75,25.25,25.25,24.75,24.50,24.75,24.75,25.00,24.50,25.00,24.75,24.75,24.75,24.25,24.25,24.25,24.50,25.25,25.00,24.50,24.25,24.50,24.25,25.00,24.00,24.75
2193752,0,0,5.22,44,1,8.4,-0.5,-74.5,-0.337,0.015,1.144,24.75,25.25,25.25,25.25,25.00,25.25,25.00,25.25,25.00,25.00,24.50,24.75,24.50,25.00,24.25,25.25,24.75,24.50,24.25,24.75,25.00,25.00,24.75,25.25,25.00,24.75,24.75,24.50,25.00,24.75,24.75,25.25,25.50,24.75,24.75,24.75,25.00,24.50,25.25,25.25,25.25,24.75,25.00,24.75,24.75,24.75,25.00,25.50,25.25,24.75,25.50,25.00,24.75,24.50,25.00,25.25,25.00,24.75,24.50,24.75,24.75,24.50,23.50,24.50
2193852,0,0,5.22,45,1,25.4,-8.4,-59.8,-0.226,0.080,0.889,25.00,24.75,25.00,25.00,25.00,25.25,24.25,24.75,25.00,25.00,24.25,24.50,24.50,24.75,24.50,24.75,25.25,25.00,24.00,24.50,25.00,25.25,24.75,24.50,25.25,24.75,24.50,24.50,24.75,25.00,24.50,25.25,25.00,25.25,25.00,24.75,24.75,24.50,25.00,24.75,25.25,24.75,25.00,24.75,24.50,25.00,24.75,24.75,25.00,24.50,24.75,24.75,24.25,24.25,24.25,24.75,24.75,25.00,24.50,24.75,24.25,25.00,23.75,24.75
2193952,0,0,5.22,44,1,43.1,16.0,-56.8,-0.330,0.015,0.980,24.75,25.25,25.00,25.00,24.50,24.75,24.00,24.50,25.50,25.50,24.75,24.75,24.50,24.75,24.25,24.75,24.75,25.50,24.75,24.50,24.50,24.50,24.75,24.00,25.00,25.25,25.00,24.50,25.00,24.75,24.50,25.00,25.00,25.00,24.50,25.00,25.00,24.75,24.50,24.75,25.75,25.00,24.75,25.00,25.00,24.25,24.50,24.50,25.00,24.50,25.00,24.25,24.25,24.50,24.50,25.00,25.00,24.25,24.50,24.50,24.75,24.75,24.25,24.50
2194052,0,0,5.22,44,1,32.8,6.1,-63.8,-0.346,-0.002,0.822,24.25,25.25,24.75,24.50,24.75,25.00,24.25,24.25,25.25,25.25,25.00,24.25,24.00,24.50,24.00,25.00,25.00,25.75,24.75,25.00,24.25,24.50,24.75,24.50,25.50,25.25,25.25,24.50,24.75,24.50,24.00,24.50,25.50,25.50,24.75,25.00,25.00,24.75,24.75,24.75,25.50,24.75,24.75,24.50,24.75,24.50,24.50,24.75,24.75,24.25,24.50,24.75,24.25,24.50,24.25,24.00,24.75,24.50,24.25,24.75,24.25,24.25,24.50,24.25
2194152,0,0,5.22,44,1,34.9,27.4,-59.0,-0.247,-0.077,0.847,25.00,25.25,25.00,24.75,24.25,24.75,24.50,24.25,24.75,25.00,24.50,24.50,24.00,24.00,24.00,24.25,24.75,25.00,25.00,25.00,24.50,24.50,24.25,24.50,25.00,25.00,24.75,24.50,25.00,24.50,24.25,25.00,25.00,25.00,25.25,25.00,24.75,24.50,24.75,24.25,25.25,25.25,24.75,24.50,24.50,25.00,24.25,24.75,25.00,24.00,24.50,24.25,24.50,24.25,24.50,24.25,24.25,24.25,24.00,24.50,24.50,24.75,23.75,24.50
2194252,0,0,5.22,46,1,15.3,-11.5,-68.8,-0.416,0.081,0.710,25.00,25.50,25.00,25.25,24.75,24.75,24.25,25.25,25.00,25.25,25.25,25.25,25.25,24.75,25.00,24.25,25.25,25.50,24.75,25.25,25.00,25.00,24.50,24.25,25.00,25.25,25.50,24.75,24.75,24.75,25.25,25.00,25.00,25.25,25.00,25.00,25.00,24.50,24.75,24.75,25.25,24.50,24.50,25.00,24.50,24.75,24.75,24.50,25.25,25.25,24.50,24.25,24.25,24.25,24.00,24.75,25.00,25.00,24.75,25.00,24.50,24.50,24.00,25.50
2194352,0,0,5.22,44,1,-11.7,-42.7,-75.3,-0.351,0.009,0.839,25.00,25.50,25.25,25.50,25.00,25.25,24.50,24.25,25.25,25.00,25.25,25.25,25.25,24.75,25.00,24.00,25.00,26.00,25.00,25.25,24.75,24.50,24.75,24.50,25.00,25.50,25.25,24.75,25.00,24.50,24.75,25.25,24.75,24.75,24.50,24.75,24.75,24.75,24.50,24.50,25.25,24.50,24.75,24.75,24.75,24.75,24.00,24.75,25.25,24.75,25.25,24.25,24.50,24.25,24.50,24.75,25.25,24.75,24.50,24.75,24.25,24.50,24.25,24.50
2194452,0,0,5.22,44,1,15.6,-14.3,-54.2,-0.367,-0.023,0.890,24.75,25.00,24.75,25.25,25.50,25.00,24.50,24.75,25.00,25.75,24.75,25.50,25.25,25.25,24.50,24.75,24.75,25.25,25.00,25.00,25.00,25.00,24.75,24.25,25.50,25.00,25.75,25.00,25.50,25.00,24.50,24.75,25.00,24.75,24.75,24.75,24.75,24.25,24.50,24.25,25.00,25.25,24.75,24.75,24.50,24.75,24.25,24.75,25.00,24.75,24.50,24.75,24.00,24.50,24.25,24.50,25.00,24.75,24.00,24.50,24.50,24.75,23.75,24.75
2194552,0,0,5.22,44,1,9.8,-5.8,-24.1,-0.425,0.012,0.879,25.00,25.00,25.00,25.00,25.25,25.00,25.00,24.75,25.25,25.50,25.25,25.00,25.00,25.25,24.50,25.25,25.25,25.50,25.50,25.50,25.00,25.50,25.25,24.50,25.25,25.50,25.25,25.00,25.50,25.25,24.75,24.75,24.50,24.75,24.75,25.50,25.00,24.25,24.75,24.75,25.25,24.50,24.50,24.50,24.25,25.00,24.50,24.75,25.75,24.25,25.00,24.50,24.25,24.75,24.75,24.50,25.50,25.25,24.75,24.50,24.50,25.00,24.00,24.25
2194652,0,0,5.22,45,1,15.2,6.4,-23.5,-0.366,-0.014,1.003,24.25,24.75,24.50,25.25,25.25,25.25,25.00,25.00,24.75,25.25,25.00,25.00,24.75,25.25,24.50,24.50,24.75,25.50,25.00,24.75,24.75,25.00,25.00,24.75,25.00,25.25,24.75,25.00,25.25,24.50,24.50,24.75,25.00,24.00,24.50,24.50,25.25,24.50,24.25,24.00,25.00,24.00,24.25,24.75,24.50,24.75,24.00,24.50,25.00,24.75,24.25,25.00,23.75,24.00,24.75,24.25,25.50,24.25,24.25,24.50,24.50,24.00,23.75,24.25
2194752,0,0,5.22,44,1,48.6,45.5,5.6,-0.385,0.050,0.913,25.25,24.75,24.75,25.50,25.50,25.75,25.00,25.00,24.75,26.00,25.50,25.00,25.50,24.75,24.50,24.75,25.25,25.50,25.00,25.25,25.25,25.50,24.75,24.75,25.25,25.25,25.25,25.25,25.25,25.25,24.75,25.00,24.75,24.75,24.50,25.25,25.25,24.50,25.00,24.75,25.25,24.00,24.75,24.25,24.50,24.75,24.25,24.00,25.00,24.50,24.50,24.50,24.25,24.25,24.25,24.75,24.75,25.25,24.50,24.50,25.00,25.00,24.00,24.50
2194852,0,0,5.22,44,1,-18.8,-48.7,-0.8,-0.369,0.060,1.069,25.00,25.25,25.50,25.00,25.50,25.50,24.50,24.50,25.00,25.25,25.00,25.50,25.25,25.50,24.75,24.75,25.50,25.50,25.25,25.50,25.25,25.50,25.25,24.75,25.25,25.25,25.00,25.00,25.25,25.50,24.50,24.75,25.25,25.00,24.75,25.25,24.75,24.50,24.75,24.00,25.25,24.00,24.50,24.75,24.75,24.75,24.75,24.75,24.75,24.75,24.75,24.75,24.00,24.50,24.25,25.25,25.50,25.00,24.75,25.00,24.75,24.50,23.75,24.75
2194952,0,0,5.22,44,1,-11.4,3.9,37.2,-0.170,0.038,0.893,25.00,25.75,25.25,25.50,25.25,25.25,25.00,24.75,25.25,25.50,25.25,25.25,25.00,25.25,25.00,25.25,25.25,25.50,25.50,25.00,25.00,25.25,25.25,25.25,25.75,25.25,25.25,25.00,25.50,25.50,24.75,25.00,24.75,24.25,25.00,25.25,25.00,24.50,24.75,24.75,25.25,25.00,24.50,25.00,24.75,24.75,24.50,24.75,25.25,24.25,25.00,24.25,24.25,24.75,25.00,24.50,25.25,24.25,23.75,25.00,24.25,24.50,24.00,24.50
2195052,0,0,5.22,45,1,-25.7,-16.6,68.5,-0.220,-0.104,0.837,25.25,25.50,25.75,25.50,25.50,25.75,25.00,24.75,25.00,25.50,25.25,25.50,25.00,25.25,25.00,25.25,25.25,25.75,25.50,25.25,25.25,25.50,24.75,24.75,25.75,25.50,25.50,25.00,25.50,24.75,24.50,24.75,24.75,25.00,25.25,25.25,24.75,24.50,24.25,24.25,25.00,25.00,24.75,25.00,24.50,24.50,24.50,24.25,25.00,24.25,24.50,24.00,24.00,24.50,24.50,25.00,25.00,25.00,24.75,23.75,24.50,25.00,24.00,24.25
2195152,0,0,5.22,44,1,-6.8,15.7,87.4,-0.203,-0.156,1.034,25.50,25.50,25.50,25.50,25.50,25.00,25.25,24.25,25.25,25.75,24.50,25.00,24.75,25.00,24.75,24.25,24.75,26.00,24.75,24.75,25.25,25.00,24.25,24.25,25.75,25.25,25.00,25.00,25.00,24.50,24.00,24.50,25.00,25.00,24.75,24.50,24.25,24.50,24.25,24.75,25.00,24.25,24.75,24.75,24.75,24.50,24.00,25.00,25.00,24.25,25.25,24.50,23.75,24.00,24.25,25.00,24.50,24.25,24.50,24.50,24.50,24.75,24.00,24.25
2195252,0,0,5.22,44,1,1.2,-8.8,143.1,-0.204,-0.068,1.119,25.50,25.50,25.25,25.50,25.75,24.50,24.50,24.50,25.25,25.25,24.75,25.00,25.50,25.00,24.25,24.50,25.25,25.50,25.00,25.25,24.75,25.00,24.50,24.50,25.75,25.50,25.25,25.00,25.00,24.75,24.50,25.25,25.50,25.25,25.25,25.00,25.00,24.50,25.00,25.00,24.75,24.00,24.75,24.75,24.50,24.50,24.50,25.25,24.75,24.50,24.50,24.25,24.25,24.25,24.75,25.00,25.25,24.50,24.25,24.75,24.75,24.25,24.50,24.50
2195352,0,0,5.22,44,1,50.0,24.1,183.1,-0.034,-0.014,1.027,25.50,25.75,25.25,25.50,25.00,24.75,24.25,24.25,25.25,25.75,25.00,24.75,24.75,24.50,23.75,24.75,25.25,25.50,24.75,25.25,24.50,25.25,24.75,24.25,25.50,25.50,25.25,24.50,25.75,24.75,24.50,25.00,25.25,25.00,24.50,24.75,24.75,24.50,24.75,24.00,24.50,25.00,24.75,25.00,25.00,24.75,24.50,24.50,25.25,24.25,24.75,24.75,24.25,24.50,24.75,24.75,25.25,24.50,24.50,24.50,24.50,24.50,24.25,25.00
2195452,0,0,5.22,45,1,-9.3,13.0,151.1,-0.061,0.140,0.929,25.50,25.75,25.00,25.25,24.75,24.50,24.25,24.25,25.00,25.25,24.75,25.00,24.75,25.00,24.25,24.75,24.75,25.50,24.75,24.50,25.00,25.00,24.75,24.00,25.25,25.25,25.50,24.75,24.75,24.75,24.25,24.50,24.50,25.00,25.50,25.00,25.00,24.50,25.00,24.75,25.00,24.50,24.75,25.00,24.75,25.00,24.75,24.75,25.00,24.75,25.00,24.50,24.25,24.50,24.50,24.50,25.00,25.00,25.00,25.25,24.75,25.00,23.75,24.75
2195552,0,0,5.22,44,1,-7.5,24.8,109.0,0.008,0.242,0.946,24.75,24.75,24.50,25.00,25.00,25.50,24.75,24.25,24.75,25.00,24.75,24.50,24.50,24.75,24.50,24.75,25.00,24.75,24.50,25.00,25.00,25.00,25.00,24.25,25.75,25.50,25.00,24.75,25.25,24.75,24.50,24.75,24.75,25.00,24.75,25.00,25.00,24.50,25.00,25.00,25.00,24.50,24.75,25.00,24.75,24.75,24.75,25.50,25.00,24.25,25.00,24.25,24.50,24.50,24.25,25.00,24.50,25.00,24.50,24.75,24.25,24.75,24.50,24.75
2195652,0,0,5.22,44,1,-5.2,31.4,90.6,-0.095,0.211,0.952,24.50,24.50,24.50,25.25,25.25,25.00,24.25,24.50,24.75,25.25,24.75,25.00,24.50,24.50,24.25,24.75,24.50,25.00,24.75,25.00,25.00,25.25,25.00,24.75,24.75,24.75,25.00,24.50,24.75,24.50,24.50,24.75,24.50,25.25,25.00,25.25,24.75,24.75,24.50,25.50,24.75,24.00,24.50,24.75,24.75,24.75,24.75,24.75,25.00,24.25,24.25,24.25,24.00,24.50,24.50,24.50,25.00,24.50,24.25,24.75,24.75,25.25,24.25,24.75
2195752,0,0,5.22,44,1,8.6,4.1,84.5,0.055,0.220,0.967,24.50,24.50,24.50,25.25,25.25,25.00,24.25,24.50,24.75,25.25,24.75,25.00,24.50,24.50,24.25,24.75,24.50,25.00,24.75,25.00,25.00,25.25,25.00,24.75,24.75,24.75,25.00,24.50,24.75,24.50,24.50,24.75,24.50,25.25,25.00,25.25,24.75,24.75,24.50,25.50,24.75,24.00,24.50,24.75,24.75,24.75,24.75,24.75,25.00,24.25,24.25,24.25,24.00,24.50,24.50,24.50,25.00,24.50,24.25,24.75,24.75,25.25,24.25,24.75
2195852,0,0,5.22,45,1,25.3,19.2,72.5,-0.033,0.370,0.872,24.75,25.25,25.00,25.00,25.25,25.50,24.75,25.25,25.25,25.25,25.00,25.50,25.00,25.00,24.75,24.75,24.75,25.50,24.75,25.00,24.75,25.25,25.00,24.75,25.25,25.25,25.25,25.25,25.00,25.00,25.00,25.75,25.00,25.00,24.75,25.50,25.00,24.75,25.00,24.75,25.00,24.25,25.25,24.75,24.75,25.00,25.25,24.75,25.00,24.50,25.00,24.50,24.50,24.75,24.50,24.50,24.75,24.75,25.25,25.00,24.75,24.75,23.75,24.50
2195952,0,0,5.22,44,1,38.4,2.4,65.1,-0.048,0.397,0.976,25.00,25.50,25.25,25.25,25.50,25.75,24.50,25.25,25.00,25.00,25.25,25.25,24.75,25.00,24.75,24.50,24.50,25.25,25.25,25.00,25.00,25.50,25.00,23.75,25.25,25.25,25.25,24.50,25.25,25.00,25.25,24.25,25.00,25.00,25.25,25.25,25.75,24.75,24.75,24.50,25.50,24.50,25.00,25.00,25.00,24.75,24.75,25.00,25.25,24.75,25.25,24.75,24.75,24.50,24.50,24.50,24.75,24.75,24.75,25.00,24.75,25.50,24.00,24.50
2196052,0,0,5.22,44,1,46.1,7.0,57.2,0.110,0.477,0.853,25.50,25.25,25.25,25.50,26.00,25.25,24.50,24.25,25.00,25.50,25.00,25.75,25.50,25.25,24.00,24.25,25.00,25.50,25.25,25.50,25.50,25.50,24.25,24.50,25.25,25.25,25.50,25.50,25.00,25.25,24.25,25.00,25.25,25.00,25.25,25.50,25.25,24.50,24.25,25.00,25.50,24.50,25.25,25.25,24.75,25.00,24.75,25.25,26.00,24.75,25.00,24.75,25.00,24.50,24.75,25.00,25.50,25.00,24.75,25.50,25.25,25.00,24.75,24.75
2196152,0,0,5.22,44,1,48.4,-7.4,50.4,-0.033,0.586,0.921,25.50,25.25,25.50,25.75,25.25,25.00,24.50,25.25,25.75,25.50,25.75,25.25,25.00,24.25,24.25,25.00,25.25,26.00,25.50,25.25,24.75,24.50,25.00,25.25,25.50,25.50,25.50,25.25,24.75,24.75,24.50,25.50,24.75,24.75,25.00,24.75,24.75,24.50,25.25,25.00,25.25,25.25,25.00,25.25,24.50,25.00,25.25,25.00,25.00,25.25,25.00,25.00,25.00,25.00,24.75,25.75,25.25,25.25,24.75,24.75,25.50,25.25,24.50,25.00
2196252,0,0,5.22,45,1,34.2,-32.0,11.2,0.302,0.629,0.977,25.25,25.50,25.25,25.50,24.75,24.50,25.00,25.00,25.25,25.75,25.25,24.50,24.00,24.75,24.75,25.75,25.00,25.75,25.50,24.75,24.25,25.00,25.50,25.00,25.75,25.50,25.25,24.75,24.75,24.75,25.00,25.50,25.00,25.25,24.50,24.75,24.75,24.75,25.00,25.50,25.25,25.00,25.25,25.00,24.50,25.00,24.75,25.75,25.00,25.50,25.25,24.75,24.75,25.00,25.00,25.50,24.75,25.25,24.75,25.00,25.50,25.25,24.00,24.50
2196352,0,0,5.22,44,1,117.6,61.3,23.4,0.224,0.715,0.681,25.50,26.25,25.50,25.00,24.75,25.50,25.25,26.00,26.00,25.75,25.50,24.50,24.50,25.50,25.00,26.00,25.75,25.75,25.50,24.75,25.25,26.00,25.75,25.75,25.50,25.25,25.00,25.00,25.50,25.25,25.50,25.75,25.50,25.25,25.00,25.25,25.50,25.25,25.50,25.50,25.75,25.50,25.25,25.50,25.25,25.25,25.50,25.75,25.75,25.50,25.25,25.00,24.75,25.00,25.50,25.75,25.25,25.50,25.00,26.00,25.25,25.50,25.00,25.75
2196452,0,0,5.22,44,1,139.7,9.8,40.2,0.272,0.647,0.561,26.25,25.50,25.25,25.00,25.00,26.00,26.00,26.75,25.75,25.75,25.00,25.00,25.50,25.50,25.50,26.00,25.50,25.75,25.00,25.00,25.75,25.75,26.00,25.50,25.50,25.50,25.25,24.75,25.50,25.50,25.50,26.50,25.50,25.50,25.50,25.75,25.25,25.25,25.75,25.50,25.75,25.25,25.25,25.75,25.00,25.50,25.25,25.75,25.50,25.50,25.50,24.75,24.75,25.00,25.00,25.50,25.50,25.00,25.25,25.50,25.75,25.25,24.75,25.25
2196552,0,0,5.22,44,1,140.4,15.2,68.6,0.354,0.723,0.272,26.50,26.00,25.00,25.75,26.25,26.25,26.00,26.25,26.00,25.75,25.75,25.50,25.75,25.75,25.50,25.50,25.50,25.75,25.25,25.50,25.50,25.75,26.00,26.00,25.75,25.50,25.75,25.25,25.75,25.75,25.75,26.00,25.75,25.50,25.50,25.25,25.50,25.25,25.75,25.50,26.00,25.75,25.75,25.75,25.50,25.50,25.25,25.75,26.00,25.50,26.00,25.50,25.25,25.50,25.00,25.75,25.50,25.50,25.50,25.25,25.25,25.25,24.75,25.25
2196652,0,0,5.22,46,1,95.6,43.0,50.4,0.398,0.795,0.127,26.00,26.25,26.00,26.00,26.00,26.50,26.00,26.00,25.75,26.00,25.25,26.00,26.00,25.75,25.75,26.00,25.50,26.25,25.50,25.50,25.75,26.25,25.75,25.50,26.00,26.00,26.00,25.50,25.75,25.75,25.00,26.00,26.00,25.75,25.50,25.75,25.50,25.00,25.50,25.25,26.25,25.25,25.75,25.75,25.50,25.75,24.75,26.00,25.25,25.50,25.25,25.50,25.25,25.50,25.00,25.25,26.00,25.25,25.00,25.75,25.25,25.25,24.75,24.75
2196752,0,0,5.23,44,1,69.7,42.2,41.5,0.466,0.857,0.170,26.00,26.25,25.50,25.50,25.75,26.00,25.75,25.25,25.75,26.00,25.50,26.00,25.75,25.75,25.25,26.00,26.25,26.25,25.75,25.50,25.75,26.00,25.75,25.50,25.50,26.00,25.75,25.25,26.00,26.00,25.50,26.25,25.75,25.75,25.50,25.75,25.00,25.25,25.25,25.25,26.00,25.75,25.00,25.50,25.25,25.50,25.00,25.25,25.75,25.75,25.50,25.50,25.00,25.00,25.00,25.00,28.00,26.75,25.50,25.50,25.00,25.25,25.00,24.75
2196852,0,0,5.22,44,1,68.8,66.5,30.3,0.464,0.871,-0.053,26.50,26.75,26.00,26.25,26.50,26.00,25.75,26.50,26.25,25.75,25.75,26.00,26.00,25.75,25.50,26.25,26.25,26.00,26.00,25.75,25.75,26.00,25.75,25.75,26.00,26.00,25.75,25.75,25.75,26.00,25.50,25.75,25.75,25.75,26.00,25.75,25.75,25.25,25.75,25.50,26.00,26.00,26.00,25.75,25.75,25.75,24.75,25.25,26.75,25.50,25.75,25.25,25.00,24.75,25.25,25.50,29.50,27.25,25.00,25.50,25.00,25.00,24.00,25.75
2196952,0,0,5.22,44,1,51.5,36.3,52.2,0.507,0.691,-0.013,26.25,26.75,25.75,26.50,26.00,26.25,26.00,25.75,26.00,26.25,26.00,25.75,26.00,25.75,25.75,26.00,25.75,26.50,26.00,25.75,25.75,26.00,25.75,25.50,26.50,26.00,25.50,25.50,25.75,26.00,25.25,26.25,26.00,26.00,25.75,25.75,25.75,25.75,25.50,25.75,26.00,25.50,25.50,25.50,25.75,25.75,24.75,25.25,28.50,25.75,26.00,25.50,25.25,25.00,24.75,25.75,29.50,27.00,25.75,25.00,25.25,25.50,25.00,25.00
2197052,0,0,5.22,46,1,7.9,11.2,46.3,0.540,0.699,-0.140,25.75,26.25,26.25,26.25,26.25,26.50,26.00,26.25,25.75,26.50,26.00,26.00,25.75,26.00,25.75,26.00,25.75,26.25,26.25,25.75,25.75,25.75,25.75,26.25,26.00,26.25,26.00,25.50,25.50,25.00,25.50,25.75,25.50,25.75,25.75,26.25,25.75,25.75,25.00,25.75,26.00,25.25,25.75,25.50,25.50,25.75,25.25,25.50,27.25,25.25,25.50,25.25,24.75,25.50,24.75,25.25,27.75,26.25,25.25,25.25,25.25,25.25,24.00,25.00
2197152,0,0,5.22,44,1,32.5,13.5,37.5,0.702,0.777,-0.149,25.75,26.00,25.75,26.25,26.25,26.50,26.25,26.25,26.00,26.00,26.00,26.25,26.00,26.00,26.00,25.75,26.00,26.25,26.00,25.75,25.75,26.00,25.75,25.50,26.25,26.25,25.75,25.50,25.75,25.50,25.50,26.00,26.00,26.00,26.00,26.00,25.75,25.25,25.50,25.50,25.75,25.75,25.50,25.75,25.50,25.75,25.25,25.50,26.50,25.75,25.50,25.25,25.25,25.00,24.50,25.00,26.00,25.50,25.25,25.25,25.00,25.50,24.50,25.25
2197252,0,0,5.22,45,1,17.6,-10.1,45.7,0.773,0.825,-0.097,26.75,26.50,26.25,26.25,26.50,26.25,25.75,27.50,25.75,26.25,25.50,25.75,26.00,25.75,25.75,25.50,25.50,26.00,25.75,25.75,25.75,26.00,25.25,25.25,26.00,26.00,25.75,25.50,25.50,25.00,25.00,25.50,25.75,26.00,25.75,25.75,25.50,25.00,25.00,25.25,26.00,25.50,25.25,25.75,25.00,25.25,25.25,25.00,26.25,25.50,25.25,25.25,24.75,24.50,24.75,24.25,26.00,25.25,25.25,25.25,25.25,24.50,23.75,24.25
2197352,0,0,5.22,44,1,5.0,-18.5,17.9,0.789,0.730,-0.055,26.00,26.50,26.25,26.50,26.50,26.50,27.25,27.50,26.25,26.25,25.50,26.00,26.00,26.25,25.75,26.25,26.25,26.25,25.25,25.75,25.25,26.00,25.50,25.75,26.25,26.25,25.75,25.75,25.75,25.50,25.50,26.25,25.75,25.75,26.00,25.75,25.75,25.75,25.50,25.75,26.00,25.75,25.50,26.00,25.50,25.50,25.50,25.75,26.00,25.50,26.00,25.50,24.75,25.25,24.75,25.25,26.25,25.25,25.50,25.00,25.25,24.50,24.50,25.00
2197452,0,0,5.22,46,1,-42.1,-10.1,5.2,0.739,0.706,-0.130,26.25,26.50,26.25,26.25,26.75,26.50,27.75,28.25,26.25,26.00,26.00,26.00,26.00,26.00,26.00,26.25,26.50,25.75,25.75,26.00,25.75,26.25,26.00,26.00,26.50,26.00,26.00,25.25,25.75,25.75,25.50,25.75,26.00,25.75,25.75,25.50,25.75,25.25,25.75,25.50,26.25,25.00,25.75,25.50,25.75,25.75,25.50,25.75,26.00,25.75,25.75,25.25,24.75,24.75,25.00,25.00,26.25,25.75,25.75,25.50,25.00,25.00,24.25,25.25
2197552,0,0,5.23,44,1,-55.8,-27.8,-5.1,0.826,0.628,-0.101,26.00,27.00,26.50,27.00,26.75,27.75,28.50,28.75,26.25,26.25,26.25,26.00,26.25,25.75,26.00,26.50,26.25,26.25,25.50,26.00,25.75,26.00,26.00,25.75,26.25,26.00,25.75,25.75,26.25,25.75,25.50,26.00,26.00,25.75,26.00,25.50,25.50,25.25,25.75,25.50,26.25,25.25,25.75,25.50,26.00,25.75,25.25,25.50,26.50,25.75,25.75,25.50,25.00,25.50,25.50,25.75,26.00,25.50,25.75,25.50,24.50,25.25,24.50,25.25
2197652,0,0,5.23,44,1,-44.9,-11.8,-8.6,0.873,0.670,-0.039,26.25,26.50,26.75,27.25,27.50,30.25,30.00,30.25,26.50,26.50,26.00,26.50,26.75,27.25,27.50,28.50,25.75,26.50,26.00,26.00,26.25,26.50,26.25,26.00,26.25,25.75,26.00,25.50,26.25,26.00,25.75,26.25,26.25,25.75,25.75,25.75,25.75,25.50,26.00,25.25,26.50,26.00,25.50,25.75,25.75,25.75,25.50,25.50,29.25,25.75,25.50,25.25,25.00,25.50,25.50,25.50,29.25,25.50,25.50,25.25,25.00,25.25,25.00,26.00
2197752,0,0,5.23,43,1,-33.8,-33.9,6.4,0.821,0.602,0.007,26.50,26.75,26.75,27.50,29.75,30.75,30.50,30.50,26.25,26.50,26.50,26.50,26.50,29.25,30.00,30.25,25.50,26.00,26.25,26.00,26.00,26.75,27.25,27.25,26.25,26.00,26.00,25.75,25.75,25.75,25.50,26.50,25.75,25.75,25.50,25.50,25.50,25.25,25.25,25.75,26.50,25.50,26.00,25.25,24.75,25.75,25.00,25.50,29.50,26.25,25.25,25.25,25.00,25.00,25.00,25.00,29.50,28.50,25.25,25.25,25.50,25.25,24.75,24.50
2197852,0,0,5.23,45,1,17.8,-13.7,-6.9,0.786,0.649,-0.107,26.75,27.00,27.00,28.75,30.75,31.75,31.50,31.50,26.75,26.50,26.50,26.50,28.75,30.75,30.50,31.25,26.00,26.75,25.75,26.50,26.75,29.00,29.75,29.75,26.25,26.25,26.25,25.50,26.50,26.25,26.25,26.50,26.00,26.00,26.00,26.00,25.50,25.75,26.00,26.25,26.50,26.00,25.75,25.25,25.50,26.00,25.50,26.00,29.00,28.25,26.00,25.00,25.50,25.25,25.50,25.75,30.00,29.50,26.75,25.50,25.25,25.00,24.25,25.50
2197952,0,0,5.23,44,1,-22.2,-23.0,-10.4,0.789,0.602,-0.109,26.75,27.00,27.25,29.00,31.25,31.50,31.75,31.50,26.50,26.50,26.75,27.00,28.75,30.50,30.00,31.25,26.00,26.50,25.75,26.50,26.50,28.75,29.25,29.25,26.25,26.50,26.00,26.00,26.25,26.25,26.00,26.50,25.75,26.00,25.50,25.50,26.00,25.75,26.00,26.00,26.75,25.75,26.00,25.75,25.25,25.75,25.25,25.75,29.25,29.75,27.00,25.50,25.00,25.25,25.00,25.25,30.25,30.25,27.75,25.75,25.00,25.50,24.75,25.25
2198052,0,0,5.23,44,1,0.1,-2.7,-9.3,0.771,0.586,-0.030,26.25,26.50,27.25,28.75,31.25,31.25,31.75,31.50,26.50,26.50,26.25,26.75,28.75,30.75,30.50,30.75,26.25,26.25,26.00,26.25,26.50,29.50,29.75,30.25,26.50,26.00,26.25,26.00,26.25,26.00,26.75,27.75,26.00,25.75,25.75,26.25,26.00,26.00,25.75,26.50,26.50,26.25,25.75,25.50,25.75,25.75,25.25,26.00,28.00,29.75,27.50,25.25,25.25,25.00,25.00,25.50,30.50,30.50,29.25,26.25,25.25,25.00,24.50,25.50
2198152,0,0,5.23,43,1,-5.9,-10.2,19.3,0.780,0.657,-0.134,26.25,27.25,27.50,28.50,31.00,32.00,31.25,31.75,26.50,26.50,26.25,26.50,28.75,31.00,30.75,31.00,25.75,26.25,26.25,26.25,27.00,29.75,30.00,30.00,26.00,26.25,26.00,25.75,26.25,26.50,26.75,28.00,26.25,26.00,25.50,26.50,26.00,25.50,26.00,26.25,26.25,26.25,26.00,25.50,25.50,26.00,25.75,26.25,28.25,30.25,28.75,25.75,25.25,25.50,25.50,25.50,30.25,30.75,29.50,26.25,25.00,25.25,24.50,25.75
2198252,0,0,5.23,46,1,-18.4,-16.1,-2.1,0.782,0.586,-0.108,26.25,27.25,27.50,28.50,31.00,32.00,31.25,31.75,26.50,26.50,26.25,26.50,28.75,31.00,30.75,31.00,25.75,26.25,26.25,26.25,27.00,29.75,30.00,30.00,26.00,26.25,26.00,25.75,26.25,26.50,26.75,28.00,26.25,26.00,25.50,26.50,26.00,25.50,26.00,26.25,26.25,26.25,26.00,25.50,25.50,26.00,25.75,26.25,28.25,30.25,28.75,25.75,25.25,25.50,25.50,25.50,30.25,30.75,29.50,26.25,25.00,25.25,24.50,25.75
2198352,0,0,5.23,44,1,-14.7,-15.5,-8.2,0.784,0.628,-0.121,26.75,26.75,27.25,28.50,30.75,31.75,31.50,31.50,26.50,26.50,26.25,26.75,29.25,31.00,30.50,30.75,26.00,26.25,26.00,26.00,26.75,29.75,30.00,29.75,26.25,26.00,26.00,25.50,26.50,27.25,27.25,28.25,26.00,25.75,25.50,25.75,26.50,25.25,26.00,25.50,27.00,26.75,26.00,25.75,25.25,26.00,25.50,26.00,28.75,29.75,28.50,25.00,25.25,25.25,25.00,25.50,30.50,29.75,28.00,25.50,25.50,25.25,24.50,25.00
2198452,0,0,5.23,44,1,-35.3,-33.9,-16.1,0.805,0.618,-0.132,27.50,27.50,27.25,29.25,32.25,32.00,32.25,31.75,27.00,26.50,26.75,27.00,30.00,31.50,31.50,31.00,26.00,26.75,26.25,26.25,27.50,30.75,30.50,30.75,26.00,26.00,26.25,26.25,26.25,28.00,29.00,30.25,26.50,26.00,25.75,26.00,26.25,25.75,26.25,26.00,27.25,27.50,26.25,26.00,26.00,26.00,25.75,26.00,29.50,29.75,28.50,25.75,25.25,25.00,25.00,26.00,30.25,30.00,27.75,26.00,25.00,25.25,24.25,24.50
2198552,0,0,5.22,43,1,-34.8,-43.5,-20.2,0.849,0.646,-0.095,27.00,27.00,27.50,28.75,31.25,31.75,32.00,31.75,26.50,26.75,26.75,26.50,29.75,31.25,31.50,31.25,26.25,26.75,26.50,26.25,27.50,30.75,31.00,31.25,26.25,26.25,26.00,26.00,27.00,28.50,29.50,30.25,26.25,26.25,25.75,26.00,26.00,26.00,26.75,28.00,26.75,27.00,26.25,25.50,25.75,26.25,26.00,26.50,28.75,29.50,28.25,25.25,24.75,25.50,25.75,25.75,29.75,29.50,28.00,26.00,25.50,25.25,24.75,25.25
2198652,0,0,5.23,46,1,-57.9,-69.9,-13.0,0.778,0.625,-0.167,27.00,27.00,26.75,28.50,31.50,31.50,32.00,32.00,27.00,26.50,26.75,27.00,29.25,31.50,31.00,32.00,25.75,26.50,26.50,26.25,27.00,30.75,31.25,31.25,26.50,26.50,26.00,26.00,26.75,28.25,30.25,31.00,26.25,26.25,26.00,26.25,26.25,26.75,29.50,30.25,26.00,26.50,26.00,25.75,26.00,26.50,26.50,27.25,28.50,29.75,28.00,25.25,25.50,25.25,25.50,26.00,30.50,29.75,27.50,25.50,25.00,25.25,24.75,25.75
2198752,0,0,5.23,44,1,-36.9,-69.1,-5.7,0.708,0.612,-0.125,26.50,27.25,26.75,27.75,29.75,32.00,31.75,32.00,26.25,26.50,26.00,26.75,27.00,30.25,31.50,31.75,25.75,26.50,26.25,26.00,26.75,29.00,31.50,31.50,26.25,26.00,26.00,25.75,26.25,26.75,30.50,31.25,26.25,25.50,25.75,25.75,26.00,25.75,29.25,30.50,26.25,26.50,26.25,25.75,25.50,26.25,27.75,30.00,28.50,29.50,27.00,25.25,25.00,25.75,26.25,28.00,30.25,30.00,27.25,25.75,25.75,25.50,25.25,26.00
2198852,0,0,5.23,44,1,-34.4,-66.3,7.2,0.687,0.624,-0.174,26.50,26.25,26.25,26.50,27.25,30.00,31.25,31.25,26.00,25.75,26.50,26.25,26.50,28.00,30.75,31.50,26.25,26.00,26.25,26.00,26.25,26.75,30.25,31.00,26.25,25.75,26.00,25.75,25.75,26.00,29.00,31.25,26.00,26.00,25.50,25.75,26.00,25.75,28.25,30.75,27.00,26.25,25.75,25.75,25.75,26.00,26.75,30.25,29.00,29.00,26.00,25.25,25.50,25.50,26.50,29.25,29.75,29.50,25.75,25.25,25.75,25.75,26.00,27.25
2198952,0,0,5.23,43,1,-58.8,-49.9,18.0,0.629,0.581,-0.129,26.50,26.50,26.25,26.75,26.75,27.00,29.75,30.75,26.50,26.50,26.00,26.50,26.50,26.50,28.50,30.75,26.25,26.50,26.25,26.25,26.50,27.00,28.00,30.50,26.50,26.25,26.00,26.00,26.50,26.25,27.25,30.50,25.75,26.25,25.75,26.00,25.75,25.75,27.00,30.25,27.00,26.50,26.00,25.75,25.75,26.25,26.75,30.25,30.00,27.75,26.25,25.50,25.50,25.25,26.75,30.00,29.25,27.75,25.50,26.00,25.25,25.75,26.00,29.00
2199052,0,0,5.23,46,1,-18.3,-19.5,33.5,0.632,0.605,-0.054,26.75,26.75,26.25,26.75,26.50,26.00,26.75,27.50,26.50,26.50,26.00,26.25,26.50,26.25,26.75,29.00,26.50,26.25,25.75,26.25,26.00,26.75,26.75,29.50,26.50,26.25,26.00,25.75,26.00,26.00,26.50,29.75,26.00,25.75,26.00,26.25,26.25,25.75,26.50,30.00,26.75,25.75,25.75,25.75,25.75,26.25,26.50,30.00,29.00,26.25,25.75,25.75,25.50,25.75,26.50,30.00,29.50,26.00,25.25,25.25,25.25,25.50,26.50,30.00
2199152,0,0,5.23,44,1,-16.5,-20.7,40.9,0.634,0.635,-0.147,26.50,27.00,26.00,26.25,26.50,26.75,26.25,27.25,26.25,26.50,26.00,26.25,26.00,26.50,26.00,26.25,25.75,26.25,25.75,26.25,26.25,26.00,26.50,26.00,26.50,26.25,25.75,25.50,26.25,26.00,25.50,27.50,26.00,25.75,25.75,26.00,26.00,25.75,26.50,29.00,26.50,25.75,26.25,25.75,26.25,26.00,27.00,30.25,27.50,25.50,25.75,25.50,25.25,25.75,27.25,30.00,27.00,26.00,25.25,25.50,25.00,25.75,28.00,30.25
2199252,0,0,5.23,44,1,23.8,-13.1,61.6,0.805,0.762,-0.131,26.50,26.50,25.75,26.75,26.50,26.50,26.25,26.75,26.50,26.25,26.25,26.00,26.50,26.25,25.75,26.50,26.50,25.75,26.00,26.00,26.00,26.25,25.75,26.25,26.50,26.50,26.00,25.50,26.25,26.00,26.50,27.00,26.25,26.25,26.00,26.00,25.75,25.75,26.75,27.25,26.50,26.00,25.75,25.75,25.50,26.00,27.75,30.00,26.25,25.75,26.00,25.25,25.50,26.00,29.50,30.25,26.00,25.75,25.50,26.00,25.25,26.00,28.75,30.50
2199352,0,0,5.23,44,1,-39.3,-25.6,34.0,0.795,0.733,-0.150,26.25,26.50,26.00,26.25,26.50,26.25,26.00,25.75,26.00,26.50,26.00,26.00,25.75,25.75,25.75,27.00,26.00,26.00,25.50,25.75,25.75,26.25,26.00,26.75,26.00,26.00,26.25,25.50,25.75,26.00,26.00,27.25,25.75,25.75,25.50,26.00,25.75,25.75,26.25,26.25,26.00,25.50,25.50,25.50,25.75,27.25,28.75,29.00,25.75,25.00,25.50,25.50,25.75,28.00,30.00,31.50,25.50,25.75,25.50,25.50,25.75,29.75,29.75,30.50
2199452,0,0,5.23,46,1,-54.5,-30.4,31.4,0.759,0.705,-0.131,25.50,26.50,26.00,26.25,26.00,26.50,26.00,26.00,26.25,26.50,25.75,26.25,26.00,25.75,26.00,26.50,26.25,26.25,26.00,25.75,26.50,26.25,27.00,27.50,26.25,26.00,26.00,25.50,26.25,26.00,26.75,28.50,26.25,25.50,26.00,26.25,26.25,26.00,26.50,28.50,26.25,25.50,26.50,26.00,26.00,26.50,26.75,27.50,26.50,25.50,26.25,25.50,26.00,28.50,29.50,28.00,26.25,25.75,25.25,26.00,27.25,29.75,30.25,28.00
2199552,0,0,5.23,44,1,-62.4,-39.5,7.5,0.759,0.662,-0.126,26.00,26.25,26.00,26.00,26.25,25.75,26.00,25.75,26.50,26.50,26.00,26.00,26.00,26.00,26.00,25.50,26.00,26.25,25.75,26.00,25.75,26.00,26.00,26.00,26.50,26.00,25.75,25.75,26.00,26.00,26.25,26.75,26.25,26.00,25.75,25.50,26.00,25.75,27.00,28.25,26.25,25.50,26.00,25.75,25.50,26.50,27.25,29.00,26.00,25.25,25.75,25.75,25.50,25.50,26.50,28.00,25.75,25.50,25.50,25.50,27.75,28.25,27.50,26.00
2199652,0,0,5.23,45,1,-73.0,-30.0,-0.5,0.729,0.645,-0.150,26.25,26.25,26.25,26.00,26.00,25.50,25.25,24.75,26.25,26.00,25.75,25.50,25.75,25.75,25.25,25.75,26.00,26.50,26.00,26.00,25.50,26.00,25.75,25.75,26.50,25.50,26.25,26.00,26.00,26.00,25.50,26.00,25.75,26.25,26.00,25.75,25.75,25.75,26.00,26.25,26.25,25.50,25.75,26.00,26.00,26.00,26.50,26.50,26.00,25.50,26.00,25.75,25.50,26.25,27.75,27.25,26.00,25.25,25.50,25.50,26.00,26.00,28.00,27.50
[1;31mE (2427326) task_wdt: Task watchdog got triggered. The following tasks/users did not reset the watchdog in time:[0m
[1;31mE (2427326) task_wdt:  - IDLE0 (CPU 0)[0m
[1;31mE (2427326) task_wdt: Tasks currently running:[0m
[1;31mE (2427326) task_wdt: CPU 0: main[0m
[1;31mE (2427326) task_wdt: CPU 1: IDLE1[0m
[1;31mE (2427326) task_wdt: Print CPU 0 (current core) backtrace[0m


Backtrace: 0x4201224E:0x3FC949D0 0x42012654:0x3FC949F0 0x40377619:0x3FC94A20 0x400559DD:0x3FC99FD0 0x4037DF02:0x3FC99FE0 0x4201CD2F:0x3FC9A000 0x4201CDDC:0x3FC9A040 0x40376B7E:0x3FC9A060 0x40376C6D:0x3FC9A090 0x40376D3C:0x3FC9A0B0 0x4201359A:0x3FC9A0E0 0x420132DF:0x3FC9A160 0x4200CA30:0x3FC9A1B0 0x4200CCDC:0x3FC9A240 0x4200CDEB:0x3FC9A2C0 0x420079EB:0x3FC9A330 0x4201C53A:0x3FC9A360
--- 0x4201224e: task_wdt_timeout_handling at /home/xyzzy/esp/esp-idf/components/esp_system/task_wdt/task_wdt.c:437--- 0x42012654: task_wdt_isr at /home/xyzzy/esp/esp-idf/components/esp_system/task_wdt/task_wdt.c:510--- 0x40377619: _xt_lowint1 at /home/xyzzy/esp/esp-idf/components/xtensa/xtensa_vectors.S:1264--- 0x400559dd: _xtos_set_intlevel in ROM--- 0x4037df02: vPortClearInterruptMaskFromISR at /home/xyzzy/esp/esp-idf/components/freertos/FreeRTOS-Kernel/portable/xtensa/include/freertos/portmacro.h:565--- (inlined by) vPortExitCritical at /home/xyzzy/esp/esp-idf/components/freertos/FreeRTOS-Kernel/portable/xtensa/port.c:554--- 0x4201cd2f: xQueueSemaphoreTake at /home/xyzzy/esp/esp-idf/components/freertos/FreeRTOS-Kernel/queue.c:1777--- 0x4201cddc: xQueueTakeMutexRecursive at /home/xyzzy/esp/esp-idf/components/freertos/FreeRTOS-Kernel/queue.c:835--- 0x40376b7e: lock_acquire_generic at /home/xyzzy/esp/esp-idf/components/esp_libc/src/locks.c:158--- 0x40376c6d: _lock_acquire_recursive at /home/xyzzy/esp/esp-idf/components/esp_libc/src/locks.c:174--- 0x40376d3c: __retarget_lock_acquire_recursive at /home/xyzzy/esp/esp-idf/components/esp_libc/src/locks.c:333--- 0x4201359a: __d_vfprintf at ??:?--- 0x420132df: printf at ??:?--- 0x4200ca30: rec_dump at /home/xyzzy/fred/f1/firmware/main/firmware_main.c:559--- 0x4200ccdc: handle_line at /home/xyzzy/fred/f1/firmware/main/firmware_main.c:683--- 0x4200cdeb: app_main at /home/xyzzy/fred/f1/firmware/main/firmware_main.c:726--- 0x420079eb: main_task at /home/xyzzy/esp/esp-idf/components/freertos/app_startup.c:206--- 0x4201c53a: vPortTaskWrapper at /home/xyzzy/esp/esp-idf/components/freertos/FreeRTOS-Kernel/portable/xtensa/port.c:153
2199752,0,0,5.23,44,1,-52.3,-31.7,10.4,0.710,0.656,-0.110,27.00,26.00,26.00,25.75,25.50,25.75,25.25,24.75,26.00,25.75,25.50,25.75,25.50,25.00,24.25,24.50,26.25,25.50,25.50,25.50,25.75,25.50,25.50,25.25,26.00,25.50,25.50,25.50,25.75,25.50,25.00,25.75,26.00,26.25,25.50,25.75,26.00,25.25,26.00,25.50,26.00,25.50,25.50,26.00,25.50,25.75,26.00,26.00,25.50,25.25,25.75,25.50,25.25,25.50,25.50,25.50,25.25,25.50,25.00,25.25,25.50,26.00,26.25,26.50
2199852,0,0,5.22,46,1,-31.5,-20.4,11.3,0.781,0.667,-0.111,25.75,26.25,25.50,26.25,25.75,25.50,25.25,24.75,25.50,25.75,25.50,25.50,25.00,25.25,24.50,25.00,25.75,25.75,24.75,25.25,24.75,25.00,24.50,24.25,25.75,25.75,25.25,25.25,25.00,24.75,24.75,24.75,25.75,25.25,25.50,25.75,25.50,24.75,25.00,24.50,26.25,25.25,25.25,25.50,25.25,25.25,24.75,25.00,26.00,25.50,25.25,25.25,24.75,25.00,25.75,25.00,25.50,25.50,24.75,25.00,25.50,25.00,24.50,25.00
2199952,0,0,5.23,44,1,-20.0,-5.2,10.0,0.917,0.737,-0.188,25.75,26.25,25.75,26.25,26.25,25.50,25.50,25.25,26.50,25.75,25.75,25.50,26.00,25.75,25.25,24.75,26.25,26.00,25.00,25.50,25.25,25.25,25.00,25.00,26.25,26.00,25.25,25.00,25.25,24.75,24.50,25.00,25.50,25.50,25.75,25.25,25.25,24.50,25.00,24.25,25.75,25.50,25.25,25.75,25.50,25.25,24.75,25.25,25.75,25.25,25.25,25.50,25.25,24.75,25.25,25.25,25.75,25.25,25.00,26.00,25.00,24.75,24.50,25.25
2200052,0,0,5.23,44,1,-19.1,-19.7,14.9,0.779,0.716,-0.069,26.25,26.25,26.25,26.25,26.25,25.50,25.75,25.00,25.75,26.00,25.75,25.75,25.50,25.75,25.25,25.00,25.75,26.25,25.50,25.25,25.50,26.00,25.25,24.25,26.00,25.75,25.50,25.25,25.00,24.75,24.50,24.25,25.25,25.50,25.00,25.25,25.00,24.25,25.00,24.50,26.00,25.00,25.00,25.25,24.75,25.25,24.00,25.00,25.25,25.00,25.25,25.00,24.75,24.25,24.00,25.00,25.50,25.50,25.00,25.00,25.00,25.25,24.75,25.00
2200152,0,0,5.23,44,1,36.7,-9.0,-7.2,0.825,0.621,-0.042,26.00,26.00,26.00,26.50,26.00,25.50,25.75,24.75,26.25,26.00,25.50,26.00,25.75,25.50,25.25,25.75,26.00,26.00,25.00,25.75,25.25,25.75,25.50,25.25,26.00,25.50,25.50,24.75,25.25,25.25,24.75,24.50,25.25,25.25,25.25,25.00,24.75,24.75,24.75,24.50,25.25,25.50,25.00,25.00,24.50,24.75,24.25,24.50,26.00,25.00,25.50,24.25,24.50,24.75,24.25,24.25,25.75,25.25,25.00,25.25,25.00,25.00,24.00,24.50
2200252,0,0,5.23,46,1,46.4,-12.1,-17.2,0.713,0.611,-0.082,25.50,26.00,25.50,25.75,25.75,25.75,25.00,25.50,26.00,25.25,25.75,25.50,25.75,25.50,24.50,25.00,25.50,25.50,25.00,25.25,25.50,25.50,25.25,24.75,25.50,25.75,25.50,24.75,25.25,25.00,24.50,25.25,25.25,25.25,25.25,24.75,25.00,24.50,25.00,24.75,25.75,25.00,25.50,24.75,24.50,25.00,24.75,24.50,25.50,25.00,25.25,24.75,24.25,24.00,24.00,24.25,25.50,25.25,24.75,25.00,25.25,25.00,24.50,24.25
2200352,0,0,5.23,44,1,29.1,18.6,-20.6,0.647,0.553,-0.084,26.00,26.00,25.75,26.00,26.25,26.00,25.25,25.00,25.75,25.50,25.25,25.50,25.25,25.25,25.00,25.00,25.25,25.75,24.75,25.25,25.25,25.00,24.75,24.50,25.75,25.50,25.25,25.00,25.00,24.50,24.25,24.25,25.25,24.75,25.00,25.00,24.25,24.25,24.50,24.75,25.75,25.00,24.50,24.50,24.00,24.50,24.00,24.50,25.25,25.00,24.75,24.75,24.25,24.00,24.00,24.25,25.25,25.25,24.75,25.25,25.00,25.00,23.75,24.00
2200452,0,0,5.23,44,1,55.0,46.5,-26.7,0.709,0.627,-0.120,25.75,25.75,26.00,26.25,26.25,25.25,25.75,24.75,26.00,25.50,25.75,25.75,25.75,25.75,25.00,25.25,25.50,26.00,25.25,25.50,25.25,25.75,25.25,25.25,25.25,25.25,25.00,25.00,25.00,24.50,24.25,25.00,25.25,25.00,25.00,25.00,24.75,24.00,24.50,24.25,25.50,25.25,24.75,24.75,24.25,25.00,24.50,24.50,26.00,25.25,25.25,24.75,24.25,24.00,24.50,24.25,25.50,25.00,25.25,25.00,25.00,24.75,23.50,24.00
2200552,0,0,5.23,44,1,77.5,28.2,-21.3,0.779,0.630,-0.044,25.50,26.25,25.75,26.25,25.25,25.50,25.25,24.50,25.75,25.50,25.25,25.50,25.75,25.00,25.00,25.00,25.25,25.50,25.00,25.25,25.00,25.00,24.75,24.25,25.50,25.50,25.00,24.50,24.50,24.50,24.00,24.50,25.00,25.00,24.75,24.75,24.75,24.50,24.50,24.50,25.25,25.00,24.75,25.00,24.50,25.00,24.25,24.25,25.75,25.50,24.75,24.50,24.50,24.50,24.50,24.50,25.75,25.50,24.50,24.50,24.75,25.25,24.00,24.50
2200652,0,0,5.23,46,1,56.5,59.2,-47.2,0.911,0.745,-0.168,26.00,26.25,25.50,25.75,25.75,25.50,25.00,25.50,25.50,25.50,25.25,25.50,24.75,24.75,24.75,24.50,25.75,26.00,24.75,25.00,25.25,24.75,24.50,24.25,25.25,25.00,25.25,24.75,24.75,24.75,24.25,24.75,25.50,25.00,24.50,24.50,24.75,24.50,24.75,25.25,25.50,24.75,25.00,24.75,24.25,24.75,24.00,24.25,25.75,25.00,25.00,24.50,24.75,24.50,24.25,24.75,25.75,25.25,25.25,25.00,24.75,24.75,24.50,25.00
2200752,0,0,5.23,44,1,68.2,71.0,-27.4,0.803,0.719,-0.075,25.00,25.75,25.50,25.50,25.25,25.50,25.00,24.75,25.25,25.50,25.50,24.75,25.00,24.75,25.00,24.75,25.00,25.50,24.75,24.25,24.75,24.75,24.25,24.25,25.50,25.25,25.00,25.00,24.75,24.75,24.25,24.50,25.25,25.00,25.00,25.00,24.75,24.50,24.75,24.00,25.75,25.00,25.25,24.75,24.50,25.00,24.25,24.75,25.50,25.00,25.00,24.75,24.25,24.00,24.25,24.50,25.50,25.00,25.00,25.25,25.00,25.25,24.00,24.75
2200852,0,0,5.23,44,1,25.0,55.7,-5.1,0.722,0.675,-0.162,25.00,25.75,25.50,25.50,25.25,25.50,25.00,24.75,25.25,25.50,25.50,24.75,25.00,24.75,25.00,24.75,25.00,25.50,24.75,24.25,24.75,24.75,24.25,24.25,25.50,25.25,25.00,25.00,24.75,24.75,24.25,24.50,25.25,25.00,25.00,25.00,24.75,24.50,24.75,24.00,25.75,25.00,25.25,24.75,24.50,25.00,24.25,24.75,25.50,25.00,25.00,24.75,24.25,24.00,24.25,24.50,25.50,25.00,25.00,25.25,25.00,25.25,24.00,24.75
2200952,0,0,5.23,44,1,24.7,33.4,-39.5,0.699,0.612,-0.074,25.25,25.25,25.00,25.25,25.25,24.75,24.25,24.00,25.50,25.25,24.50,24.75,24.75,24.25,24.25,24.00,25.00,25.25,24.50,25.00,24.75,24.75,24.50,24.50,25.25,25.00,25.00,24.50,24.25,24.50,24.25,24.25,25.25,24.25,24.75,25.00,24.25,24.25,24.50,23.75,25.00,25.00,24.25,24.75,24.50,24.75,24.25,24.00,25.50,24.75,24.75,24.75,24.00,24.50,24.50,24.00,25.25,25.50,24.50,24.75,24.25,24.75,23.75,24.25
2201052,0,0,5.23,46,1,-49.5,16.0,-38.8,0.664,0.633,-0.166,25.25,25.50,24.75,25.00,25.00,25.00,24.50,25.00,25.50,25.50,25.00,24.75,24.75,24.75,24.25,23.75,25.25,25.00,24.75,24.75,24.75,24.75,24.50,24.25,25.00,25.00,24.75,24.75,24.75,24.50,24.25,25.00,24.75,24.75,25.25,24.75,24.75,24.25,24.50,24.25,25.50,24.50,24.75,25.00,24.75,24.25,24.00,25.00,25.75,24.25,24.75,24.25,23.75,24.25,24.25,24.25,25.25,25.25,24.50,24.50,24.50,24.00,23.50,23.75
2201152,0,0,5.23,44,1,-26.3,5.7,-18.0,0.773,0.616,-0.043,25.25,25.25,24.50,24.75,25.00,25.00,24.75,24.75,25.50,25.50,24.75,24.50,24.75,24.25,24.75,24.50,24.75,25.00,24.50,25.00,25.00,24.75,25.00,24.00,25.00,25.00,24.75,24.25,24.75,24.50,24.25,24.00,24.75,24.75,24.75,24.75,24.50,24.00,24.00,24.50,25.00,24.50,25.00,24.50,24.50,24.25,24.25,24.75,25.25,24.25,24.75,24.00,24.00,24.00,23.75,24.50,24.75,25.00,24.75,24.25,24.25,24.00,23.50,23.75
2201252,0,0,5.23,44,1,15.3,-10.7,-30.6,0.932,0.860,-0.096,25.25,25.00,25.00,24.75,24.75,24.25,24.25,24.00,24.50,25.50,24.75,24.50,24.50,24.50,24.25,24.25,24.75,25.00,24.75,24.75,24.50,24.50,24.50,23.75,25.00,24.75,24.50,24.25,24.25,24.00,24.75,25.00,24.50,24.50,24.50,24.50,24.50,23.50,24.25,24.00,24.75,24.25,24.50,24.50,24.25,23.75,23.75,24.25,24.50,24.25,24.75,24.25,24.00,23.75,24.75,24.25,24.50,24.25,24.25,24.50,24.00,24.25,23.75,24.00
2201352,0,0,5.23,44,1,-64.6,1.3,-8.3,0.847,0.755,-0.188,25.25,24.50,24.50,25.00,24.75,24.25,24.25,24.00,24.75,25.00,24.25,24.50,23.75,24.50,24.00,24.50,24.00,25.00,24.50,24.50,24.50,24.75,24.25,24.50,24.50,25.00,24.75,24.00,24.00,23.75,24.25,24.50,25.25,24.75,24.50,24.50,24.50,24.00,24.25,24.25,25.00,23.75,24.00,24.25,24.50,24.00,23.75,24.25,24.75,24.00,24.25,24.00,24.00,23.50,24.00,24.50,24.75,24.50,24.00,24.00,24.25,24.00,23.25,24.00
2201452,0,0,5.23,46,1,-60.2,-60.9,0.6,0.657,0.521,-0.004,24.25,24.25,24.50,24.75,24.50,24.50,24.25,24.00,24.75,24.75,24.25,24.25,24.00,24.25,23.75,24.50,24.00,24.75,24.00,24.00,24.00,24.25,23.75,23.75,24.25,24.50,24.25,23.75,24.25,23.75,23.75,24.25,24.25,24.25,24.00,24.00,24.00,23.75,24.00,23.50,24.00,24.00,24.25,24.00,24.25,23.75,23.75,23.75,24.75,24.00,24.00,23.50,23.75,23.50,24.00,23.25,24.50,23.75,24.50,23.75,24.25,23.25,22.75,23.50
2201552,0,0,5.23,44,1,-13.8,-44.6,-6.1,0.594,0.515,-0.062,24.25,25.00,24.25,24.75,24.50,24.50,24.50,24.25,24.25,24.50,24.50,24.50,23.75,23.75,23.75,24.25,24.00,24.75,24.25,24.50,24.00,24.50,24.25,24.00,25.00,24.25,24.50,24.00,24.25,24.00,23.25,24.50,24.75,24.00,24.00,24.00,24.00,23.75,24.00,24.00,24.25,24.00,24.50,24.00,23.75,23.75,23.25,24.25,24.50,24.25,24.00,24.00,23.00,23.25,24.00,24.00,24.50,24.00,24.50,24.00,23.75,23.75,23.25,23.75
2201652,0,0,5.23,44,1,-26.5,-49.5,-4.2,0.683,0.575,-0.102,25.00,24.50,24.00,24.25,24.50,24.00,23.75,24.50,24.50,24.00,24.50,24.00,24.25,24.00,23.75,23.50,24.25,24.50,24.25,24.00,24.25,24.00,24.25,23.00,24.25,24.25,24.50,23.75,24.00,23.50,24.00,23.75,23.75,24.00,24.00,24.00,23.75,23.75,24.00,24.25,24.50,23.75,23.75,24.00,23.75,24.00,23.75,24.25,24.25,24.00,24.00,23.50,23.25,23.25,23.75,24.25,24.50,23.75,23.75,23.50,23.75,24.00,23.25,23.75
2201752,0,0,5.23,44,1,12.8,-43.5,17.7,0.713,0.601,0.036,24.25,24.50,24.00,24.00,24.25,24.00,24.00,23.50,25.00,24.50,24.00,24.00,24.25,24.00,24.00,24.00,24.00,24.25,23.75,24.00,24.00,24.00,24.00,24.00,24.50,24.25,24.00,23.75,23.50,23.50,23.50,24.25,23.75,24.00,23.75,23.75,23.75,23.75,23.50,23.25,23.75,23.75,23.75,23.50,23.75,24.25,23.75,24.00,24.50,23.75,23.75,23.25,23.25,23.50,23.25,24.25,24.25,24.00,23.75,24.00,23.50,23.25,23.00,24.00
2201852,0,0,5.23,46,1,38.4,-6.6,1.6,0.942,0.789,-0.199,24.50,24.50,24.50,24.25,24.25,23.50,23.50,23.50,24.25,24.50,24.00,24.00,23.75,23.75,23.75,23.25,24.00,24.75,23.75,23.75,23.75,23.75,23.75,23.50,24.25,24.25,24.00,23.75,23.50,23.75,23.25,23.75,24.00,23.75,24.00,23.50,23.75,23.50,23.75,23.50,24.75,23.25,24.25,23.75,23.75,23.75,23.50,24.00,24.25,23.75,23.25,23.50,23.50,23.75,23.50,23.25,23.75,23.50,24.00,23.50,23.75,23.50,23.50,23.50
2201952,0,0,5.23,44,1,-8.4,-28.1,-15.3,0.994,0.788,-0.129,24.00,24.50,24.25,24.00,23.75,24.25,23.75,23.75,24.25,24.00,24.25,24.00,23.75,23.25,23.50,23.25,23.50,24.25,23.50,23.75,23.50,23.75,24.00,23.25,24.25,23.75,24.25,23.50,23.75,23.25,23.50,24.00,24.00,24.00,23.50,23.75,23.75,23.50,23.50,23.75,24.25,24.00,23.75,23.50,23.50,23.75,23.25,23.50,24.25,23.75,23.50,23.75,23.75,23.25,23.50,23.50,24.25,23.50,23.25,23.25,23.25,23.00,22.50,23.00
2202052,0,0,5.23,45,1,-45.6,-43.7,26.8,0.621,0.525,-0.071,24.25,24.75,24.25,24.25,23.75,23.75,23.50,24.00,24.25,24.25,23.75,24.00,23.50,23.75,23.50,23.50,24.25,24.25,23.50,23.75,24.00,24.00,24.00,23.75,24.50,24.25,24.50,23.50,24.25,23.75,24.00,24.00,24.00,24.25,23.75,23.75,24.00,23.75,23.75,23.75,24.25,24.00,23.75,23.75,23.50,24.25,24.00,23.75,24.75,24.00,24.25,23.75,23.75,23.75,23.50,24.00,24.25,24.25,23.50,23.75,23.00,23.00,22.75,23.50
2202152,0,0,5.23,44,1,4.7,-15.4,24.2,0.654,0.604,-0.095,24.50,25.00,24.00,24.25,24.25,24.00,23.50,23.25,24.50,24.25,23.75,23.75,24.00,23.75,23.50,23.75,24.25,24.00,23.75,23.75,24.00,24.00,24.25,24.00,24.00,24.00,24.25,23.25,24.00,24.00,23.50,23.75,23.50,23.75,23.50,23.50,23.75,23.00,23.75,23.50,24.25,23.50,23.25,23.75,23.50,23.75,23.75,23.75,24.50,23.75,24.00,23.25,23.50,23.50,23.50,24.00,24.00,23.50,23.75,23.25,23.25,23.50,23.25,23.00
2202252,0,0,5.23,47,1,-6.5,-35.3,16.6,0.592,0.525,-0.051,24.00,24.25,23.50,24.00,23.75,24.00,23.50,23.75,24.00,24.25,23.50,24.25,23.75,23.75,23.50,23.50,24.00,24.25,24.00,24.00,24.00,24.00,23.50,23.75,24.50,23.75,24.00,23.25,24.00,23.50,23.75,24.00,23.75,24.00,23.75,24.00,23.75,23.25,23.50,24.00,24.50,23.50,23.75,24.00,23.50,24.00,23.00,23.50,24.50,24.00,24.25,23.25,23.75,23.50,23.50,24.00,24.25,24.00,23.75,24.00,23.75,23.50,23.00,23.75
2202352,0,0,5.23,44,1,-31.6,-21.2,32.5,0.500,0.547,-0.114,24.25,24.75,24.00,24.25,24.25,24.25,23.75,23.50,24.25,24.25,23.75,24.25,23.75,24.00,23.50,23.00,24.00,24.25,23.75,24.00,23.50,24.00,24.00,23.50,24.25,24.25,24.00,23.75,23.75,24.00,24.00,24.00,24.25,24.25,23.75,23.75,23.50,23.50,24.00,24.00,24.75,23.50,23.75,23.50,24.25,23.75,23.25,23.75,24.00,23.50,24.00,23.50,23.75,23.00,23.25,23.50,24.50,24.25,23.50,23.75,23.25,23.75,23.00,23.75
2202452,0,0,5.23,44,1,-33.3,-29.1,36.1,0.746,0.612,-0.155,24.00,24.00,23.75,23.25,23.75,24.00,23.25,23.00,24.50,24.25,23.75,23.25,23.50,23.50,23.00,23.00,24.00,24.00,23.50,23.75,23.50,23.25,23.25,23.00,23.75,24.00,23.75,23.25,23.75,23.25,23.00,23.50,24.00,24.00,23.75,23.75,23.25,23.50,23.50,23.75,24.25,23.50,23.50,23.50,23.00,23.50,23.50,24.00,24.00,23.50,23.75,23.25,23.50,23.50,23.50,23.50,23.50,23.50,23.75,23.25,23.25,22.75,23.00,23.50
2202552,0,0,5.23,44,1,-23.0,25.8,5.1,0.757,0.716,-0.148,24.25,24.75,23.75,24.00,24.00,24.00,23.25,23.50,24.25,24.00,24.00,23.25,23.75,23.50,23.25,23.75,24.00,24.50,23.50,23.50,23.75,23.50,23.50,23.50,24.50,23.25,24.00,23.50,24.00,23.00,23.50,24.25,24.50,23.50,23.50,24.00,24.25,23.50,23.50,23.75,24.25,23.75,23.50,23.50,24.00,23.75,23.75,24.25,24.00,24.00,24.00,23.50,23.50,23.75,23.75,24.25,23.75,23.75,23.75,23.75,23.50,24.00,23.25,23.50
2202652,0,0,5.23,47,1,-45.3,5.1,17.6,0.609,0.608,-0.181,24.00,24.00,23.75,24.25,23.50,23.75,23.50,23.00,24.00,24.25,23.50,23.50,23.25,24.00,23.25,24.00,23.50,24.00,23.75,23.75,23.50,23.25,23.50,23.25,24.25,24.00,24.00,23.25,23.25,23.25,23.50,23.75,24.00,24.00,24.00,23.75,23.50,23.75,23.75,24.00,24.25,23.75,23.75,24.00,23.75,23.50,23.25,24.25,24.00,23.75,24.50,23.75,23.50,23.50,24.00,23.50,24.25,24.00,23.25,23.50,23.75,23.25,23.00,23.00
2202752,0,0,5.23,44,1,0.2,-20.5,15.7,0.706,0.602,-0.112,23.75,24.00,24.00,24.00,24.00,23.75,23.25,23.25,24.50,23.75,23.50,23.25,23.25,23.50,22.75,23.25,23.75,23.75,23.50,23.25,23.75,23.25,23.75,23.50,24.00,23.75,23.75,23.00,23.25,23.00,23.75,23.75,23.50,24.00,23.50,23.75,23.25,23.25,23.50,23.75,24.00,23.00,23.50,23.75,23.50,24.00,23.75,22.75,23.75,23.50,23.50,23.50,23.25,23.50,23.75,23.75,24.25,23.50,23.50,23.75,23.50,23.50,23.00,23.25
2202852,0,0,5.23,44,1,82.7,7.0,-29.2,1.143,0.980,-0.096,24.00,24.25,23.50,24.00,23.75,23.75,23.00,23.00,24.25,24.00,23.25,23.50,23.50,23.00,23.00,23.50,23.75,23.50,23.50,23.25,23.75,23.75,23.50,23.00,24.00,23.75,23.50,22.75,23.50,23.50,23.25,23.50,23.50,24.00,23.25,23.75,23.75,24.00,23.25,23.25,24.00,23.25,23.25,23.50,23.50,23.50,23.50,23.75,24.25,23.75,24.00,23.75,23.25,23.00,23.75,23.75,24.50,24.50,23.25,24.00,23.50,23.50,23.25,23.75
2202952,0,0,5.23,44,1,-22.5,-17.6,-10.3,0.826,0.706,-0.364,23.25,24.25,23.75,23.75,23.75,23.75,22.75,23.25,23.50,24.00,23.00,23.00,22.75,23.25,23.50,22.75,23.25,24.00,23.25,23.25,23.50,23.25,23.25,23.00,23.75,23.75,23.50,23.00,23.50,23.75,22.75,23.00,23.50,23.75,23.25,23.75,23.75,23.25,23.25,23.25,24.50,23.00,23.75,24.00,23.75,23.50,23.00,23.25,24.25,23.75,23.50,23.25,23.25,23.00,22.75,24.00,24.25,23.75,23.25,23.75,23.00,23.00,21.75,22.75
2203052,0,0,5.23,46,1,-67.4,-25.6,-2.9,0.496,0.464,-0.107,24.00,24.25,23.75,24.00,23.75,23.50,22.75,22.75,24.00,23.50,23.25,23.25,23.25,23.00,23.00,23.50,23.50,23.75,23.25,23.00,23.75,23.25,23.50,23.25,24.25,24.00,23.75,22.50,23.25,23.25,23.00,23.25,23.50,23.50,23.75,23.75,23.75,23.25,23.50,23.00,24.50,23.50,23.75,24.00,23.50,23.75,23.75,23.25,23.75,24.00,24.00,23.25,23.25,23.75,23.50,23.25,24.25,24.00,24.50,24.00,23.50,23.50,23.50,23.50
2203152,0,0,5.23,44,1,5.2,-25.8,-36.0,0.757,0.447,-0.058,23.50,24.00,23.75,23.75,23.00,23.75,23.25,23.50,23.50,24.00,23.25,24.00,23.50,23.25,22.50,23.25,23.50,23.75,23.00,23.50,23.25,23.00,22.75,23.00,24.00,23.75,23.25,23.00,23.25,22.75,22.50,23.75,24.25,23.25,23.25,23.50,23.50,22.75,22.75,23.00,24.25,23.25,23.50,23.50,23.50,23.25,22.25,23.00,24.00,23.25,23.25,23.25,22.75,23.00,22.75,23.25,24.00,23.75,23.75,23.75,23.00,22.75,23.00,22.75
2203252,0,0,5.23,44,1,39.1,48.4,-14.8,0.754,0.807,-0.214,23.75,23.75,23.75,23.75,23.50,23.50,23.50,23.25,24.00,23.75,23.50,23.25,23.00,23.00,23.25,23.25,23.50,23.75,23.25,23.25,22.75,23.25,23.00,22.75,24.00,23.50,23.50,22.75,23.00,22.75,22.50,23.50,23.50,23.75,23.50,23.50,23.00,22.75,23.00,23.00,24.00,23.25,23.50,23.75,23.00,23.25,23.00,22.75,24.25,23.25,24.00,23.50,23.00,22.50,22.75,22.75,24.25,23.50,23.75,23.50,23.25,23.00,22.25,23.00
2203352,0,0,5.23,44,1,-39.0,9.5,13.8,0.606,0.563,-0.230,23.75,23.75,23.75,23.75,23.50,23.50,23.50,23.25,24.00,23.75,23.50,23.25,23.00,23.00,23.25,23.25,23.50,23.75,23.25,23.25,22.75,23.25,23.00,22.75,24.00,23.50,23.50,22.75,23.00,22.75,22.50,23.50,23.50,23.75,23.50,23.50,23.00,22.75,23.00,23.00,24.00,23.25,23.50,23.75,23.00,23.25,23.00,22.75,24.25,23.25,24.00,23.50,23.00,22.50,22.75,22.75,24.25,23.50,23.75,23.50,23.25,23.00,22.25,23.00
2203452,0,0,5.23,47,1,55.0,-28.7,1.1,0.882,0.525,0.008,23.25,24.00,23.50,23.25,23.25,23.25,23.00,23.25,23.50,24.00,23.25,23.50,22.75,23.25,22.50,23.25,23.50,23.50,23.25,23.50,23.25,23.25,23.50,23.00,23.75,23.50,23.00,23.00,23.50,23.25,22.50,23.75,23.25,23.75,23.25,23.25,22.75,22.50,22.75,22.50,24.00,23.25,23.75,23.25,23.25,23.25,22.50,23.00,24.00,23.50,23.50,23.00,23.00,22.75,22.25,22.75,23.75,23.50,23.25,23.75,22.50,23.00,22.50,23.00
2203552,0,0,5.23,44,1,43.0,33.9,-30.6,0.705,0.747,-0.281,23.50,24.25,23.50,23.75,23.50,23.50,23.00,22.75,23.50,23.75,23.25,23.00,22.50,23.00,22.50,23.00,23.00,24.00,22.75,22.75,23.00,22.75,23.00,22.50,23.75,23.25,23.00,23.00,23.25,22.75,23.25,23.00,23.50,23.25,22.50,22.75,22.50,23.00,23.00,22.50,23.75,23.75,23.25,23.00,22.75,22.75,22.00,22.75,24.00,23.50,23.25,23.25,23.00,22.50,22.25,22.75,23.75,23.50,23.00,23.25,23.00,23.00,22.50,23.00
2203652,0,0,5.23,44,1,-86.7,-5.7,48.5,0.451,0.552,-0.175,23.75,23.25,23.50,23.50,23.75,23.50,23.00,23.00,24.00,24.25,23.25,23.00,23.00,23.25,22.25,22.50,23.50,24.00,23.00,23.50,23.00,23.50,23.00,22.75,23.50,23.50,23.25,23.00,23.25,23.00,23.00,23.00,23.75,23.50,23.25,23.00,23.25,23.00,23.50,23.25,24.25,24.00,23.75,23.50,23.00,23.25,23.00,23.00,24.25,23.75,23.25,23.50,23.00,23.25,23.50,23.25,23.75,23.75,23.50,23.50,22.75,23.00,22.50,23.25
2203752,0,0,5.23,44,1,45.3,-46.8,-7.4,0.902,0.527,0.046,24.00,23.50,23.50,24.00,23.25,23.75,23.25,23.25,23.75,23.75,23.00,23.25,22.75,23.25,22.75,23.50,23.50,23.50,23.00,23.00,23.25,23.00,23.00,22.75,23.50,23.75,23.50,22.75,23.50,22.75,22.75,23.50,24.00,23.75,23.00,23.25,22.75,22.50,22.75,23.25,24.25,23.25,23.00,23.50,23.00,22.75,23.00,23.00,24.25,23.25,23.50,23.50,23.00,22.50,23.50,22.50,24.00,23.75,23.50,23.75,23.00,23.25,21.75,22.50
2203852,0,0,5.23,47,1,7.1,38.2,-25.1,0.780,0.698,-0.345,23.75,23.75,23.25,23.25,23.75,23.50,23.00,23.25,23.50,23.25,23.25,23.50,22.75,23.50,22.75,23.25,23.50,23.25,23.00,23.25,23.00,23.00,22.75,23.00,23.50,23.25,23.25,22.75,23.00,23.00,23.00,23.25,23.50,23.50,23.25,23.25,23.00,22.50,23.00,23.00,24.25,23.25,23.25,23.00,22.25,22.75,22.50,22.50,23.50,23.75,24.00,23.25,22.25,22.25,22.25,23.00,23.50,24.00,23.00,23.25,22.75,22.75,22.50,22.25
2203952,0,0,5.23,44,1,-37.0,30.0,-14.9,0.723,0.717,-0.082,24.00,23.50,23.75,23.50,23.75,23.75,23.25,23.75,23.75,23.50,23.25,23.50,23.25,22.75,22.75,23.00,23.00,23.75,23.00,22.75,22.50,23.00,23.25,23.00,23.75,23.50,23.25,23.00,23.25,23.25,22.50,23.25,23.50,23.25,23.50,23.25,23.50,22.75,22.75,23.00,24.00,23.25,23.00,23.00,22.50,23.25,22.50,23.50,23.75,23.00,24.00,23.00,22.50,22.75,22.75,23.25,23.75,23.75,23.00,23.75,23.25,23.25,22.25,23.00
2204052,0,0,5.23,44,1,54.5,-14.0,-50.7,0.980,0.724,-0.033,23.75,23.75,23.00,23.50,23.50,23.50,22.75,23.25,23.25,23.25,23.00,23.25,22.75,22.75,22.25,23.00,23.00,23.25,22.75,22.50,22.75,23.25,23.00,23.00,23.50,23.00,22.75,22.50,22.75,23.00,22.75,23.00,23.50,23.00,22.75,23.00,23.00,22.00,22.50,23.00,23.50,23.00,23.00,22.75,22.25,23.00,22.25,22.50,23.75,23.00,24.00,22.50,22.50,22.00,22.50,23.00,24.00,22.50,23.00,22.75,22.75,22.25,22.00,23.00
2204152,0,0,5.23,44,1,-4.8,40.4,21.0,0.690,0.657,-0.367,23.75,23.75,23.50,23.50,24.00,24.00,23.25,23.00,23.25,23.25,23.00,23.25,23.25,23.50,23.00,23.00,23.25,23.25,23.25,23.25,23.25,23.00,23.00,22.75,23.50,23.00,23.25,22.50,23.00,22.75,23.00,23.50,24.00,23.00,23.25,23.00,23.25,22.50,23.00,22.75,24.25,23.25,23.25,23.00,23.00,22.50,22.75,23.25,24.00,23.25,23.25,23.00,22.75,22.75,23.00,23.50,23.25,23.50,23.25,23.50,22.75,23.25,22.50,23.00
2204252,0,0,5.23,47,1,-49.1,-39.6,28.8,0.541,0.539,-0.069,23.50,24.00,23.25,23.50,23.50,23.75,23.25,23.50,23.25,23.25,23.00,22.75,23.00,23.25,22.75,22.75,23.00,23.25,23.25,22.75,22.75,23.25,22.75,23.50,23.25,22.75,22.50,22.25,22.75,22.75,22.75,23.50,23.50,23.25,23.25,23.00,23.00,22.50,23.00,23.00,23.75,23.25,23.75,23.00,22.75,22.75,22.50,23.00,24.25,23.25,23.75,23.50,22.00,22.75,23.00,23.00,23.75,23.50,23.00,23.00,22.75,22.25,22.25,23.00
2204352,0,0,5.23,44,1,57.4,-37.2,-16.9,0.879,0.600,-0.034,23.75,24.00,23.50,24.25,23.50,23.75,22.75,23.50,23.50,23.75,23.00,23.25,23.00,23.25,22.75,23.50,23.50,23.50,23.00,22.75,22.75,23.25,23.25,23.00,23.25,23.50,23.00,22.75,23.50,22.75,22.50,23.00,23.00,22.50,22.75,22.75,23.25,22.50,23.00,23.00,23.50,22.75,23.00,22.50,22.50,22.75,22.50,22.75,24.00,23.25,23.25,22.75,22.50,23.00,22.75,22.75,23.50,23.75,23.25,23.00,22.75,22.50,22.25,22.75
2204452,0,0,5.23,44,1,-36.3,48.2,-9.4,0.717,0.753,-0.367,23.75,23.75,23.75,23.75,24.00,24.00,23.50,23.00,23.00,23.50,23.00,23.50,23.50,23.00,23.00,23.50,23.25,23.50,23.25,22.75,23.00,23.00,23.50,23.25,23.75,23.00,23.00,23.00,23.25,23.00,23.25,23.50,23.00,22.50,23.00,23.00,23.25,23.25,23.25,23.25,24.00,22.75,23.25,22.75,22.75,23.00,22.75,23.00,23.75,23.25,23.00,22.75,22.25,22.25,22.75,22.75,23.75,23.50,22.75,22.75,22.75,22.50,22.00,22.50
2204552,0,0,5.23,44,1,-39.3,-24.0,-5.6,0.620,0.599,-0.152,24.00,24.25,23.25,23.75,23.50,23.75,23.00,23.00,23.50,23.25,22.75,23.00,23.00,23.25,23.00,23.25,23.00,23.00,22.75,22.75,23.00,23.00,23.25,23.00,23.25,23.00,22.50,22.50,23.25,22.75,22.75,22.75,22.50,23.00,22.50,23.00,22.75,22.00,22.50,22.50,23.00,22.25,23.00,22.75,22.75,22.75,22.50,23.00,23.50,22.75,22.50,22.75,22.75,22.25,22.50,22.75,23.25,22.75,22.50,23.00,22.25,22.50,22.25,23.00
2204652,0,0,5.23,47,1,88.3,-17.8,-13.6,1.195,0.754,-0.071,23.50,24.00,23.50,24.25,24.00,23.75,23.75,23.75,23.75,23.25,23.50,23.25,24.00,23.25,23.25,23.25,23.25,23.25,23.50,23.25,23.25,23.75,23.25,23.25,23.50,22.75,23.00,22.75,23.25,22.75,23.00,24.00,23.50,23.25,22.75,22.75,23.25,22.50,23.25,23.00,23.50,22.50,22.50,22.75,22.75,22.75,23.25,23.25,23.50,23.00,23.00,23.00,22.25,22.25,23.00,23.00,23.50,23.50,22.25,23.00,22.75,22.75,22.00,22.25
2204752,0,0,5.23,44,1,23.2,17.3,-16.7,0.719,0.694,-0.294,24.00,24.00,23.50,24.00,24.00,24.00,23.75,23.25,24.00,24.00,23.25,23.75,23.75,23.75,23.50,23.50,23.50,23.50,23.25,23.25,23.25,23.75,23.25,23.00,23.50,23.25,23.00,23.00,23.25,23.75,23.00,23.25,23.50,23.25,23.00,23.00,23.25,22.75,22.75,23.00,23.50,22.75,23.00,23.00,23.25,23.25,22.75,22.75,24.00,22.75,23.00,22.75,22.75,22.50,22.50,23.00,24.00,23.25,23.25,23.50,22.50,22.75,22.75,22.50
2204852,0,0,5.23,44,1,-69.2,-12.3,33.2,0.531,0.595,-0.145,23.75,24.00,24.00,23.50,23.50,24.00,23.50,23.00,24.00,23.50,23.00,23.25,23.75,23.25,23.75,23.25,23.25,23.25,22.75,23.50,23.25,23.75,23.00,22.75,23.50,23.25,23.25,23.00,23.25,23.25,22.75,23.50,23.25,23.00,23.00,23.00,23.50,22.75,23.25,22.75,23.50,23.00,22.75,23.50,23.25,23.25,23.00,22.75,24.25,23.25,23.00,22.75,22.50,23.00,22.50,23.00,23.75,23.00,23.25,23.00,23.00,22.75,22.00,22.75
2204952,0,0,5.23,45,1,19.1,-14.5,23.9,0.713,0.447,-0.134,23.75,24.00,23.50,24.25,23.75,24.25,23.50,23.50,23.75,24.25,23.25,23.75,23.25,23.75,23.25,23.75,23.25,23.75,23.50,23.25,23.50,23.75,23.50,23.00,23.50,23.75,23.25,23.25,23.25,23.00,22.75,23.50,23.00,23.25,23.25,23.25,23.00,23.00,23.00,22.75,23.00,23.00,23.25,23.00,22.25,23.25,23.00,23.25,23.50,22.50,23.00,23.00,22.25,22.50,22.75,23.00,23.50,23.50,23.00,23.00,22.50,22.50,22.00,23.00
2205052,0,0,5.23,47,1,2.2,11.9,-20.9,0.912,0.790,-0.290,23.50,23.50,23.75,24.25,24.00,24.00,23.50,23.50,24.00,24.00,23.00,23.25,23.50,23.75,22.50,23.50,22.75,24.00,23.00,23.50,23.50,23.75,23.25,23.00,23.50,23.25,23.25,22.75,23.50,23.00,22.75,23.00,23.25,23.50,23.00,23.25,23.00,22.75,22.75,22.25,23.50,22.75,22.75,23.25,23.00,23.00,22.50,22.75,23.25,23.00,23.00,22.75,22.25,22.75,22.25,23.25,23.50,23.00,22.25,23.00,23.00,22.25,22.00,22.25
2205152,0,0,5.23,44,1,-52.7,66.4,3.2,0.685,0.485,-0.062,23.75,24.00,23.75,24.25,23.75,23.75,23.50,23.50,24.00,23.50,23.50,23.50,23.25,23.50,23.00,23.50,23.00,24.00,23.25,23.75,23.50,24.00,23.50,23.75,24.00,23.50,23.50,23.00,23.50,23.00,22.75,23.25,23.25,23.50,23.25,23.25,23.25,22.75,23.25,22.75,23.50,23.25,23.00,23.00,23.00,23.00,22.75,23.50,23.50,23.25,23.25,22.75,22.50,22.75,22.75,23.50,23.75,23.25,23.00,23.00,23.00,22.75,22.25,22.75
2205252,0,0,5.23,44,1,50.6,-12.2,3.0,0.704,0.654,-0.093,24.00,24.25,24.00,24.00,24.25,23.75,23.50,24.25,24.25,24.00,23.50,24.00,23.75,23.50,22.75,23.75,23.75,23.50,23.75,23.75,24.00,23.75,23.25,23.50,23.50,23.75,23.50,23.50,23.75,23.00,22.75,23.00,23.25,23.25,23.75,23.50,23.25,23.00,23.50,22.75,23.75,23.25,22.75,23.00,23.00,23.00,22.50,23.00,23.75,23.00,23.50,23.00,22.50,23.25,22.75,23.25,23.50,23.00,22.75,23.00,23.00,23.00,22.25,22.75
2205352,0,0,5.23,44,1,63.4,25.0,-35.4,0.889,0.876,-0.207,24.25,24.25,24.00,24.25,23.50,24.00,23.50,24.75,24.25,23.75,24.00,23.75,23.50,23.50,23.75,24.25,23.25,24.00,23.25,23.50,23.25,23.50,23.00,23.25,23.25,23.25,23.75,23.00,23.25,23.25,22.75,23.50,23.75,23.00,23.00,23.25,23.50,23.25,23.00,22.75,23.75,23.25,23.50,23.00,22.75,23.00,22.50,23.50,23.75,24.00,23.50,23.00,22.50,22.50,23.00,23.75,23.75,22.75,23.00,22.75,22.75,22.50,22.25,22.75
2205452,0,0,5.23,47,1,-33.2,34.5,25.9,0.742,0.773,-0.297,24.00,24.50,24.50,24.25,24.00,23.50,23.75,24.25,23.75,23.50,23.75,23.75,23.25,23.25,23.50,23.75,23.00,23.50,23.00,23.75,23.50,23.75,23.25,22.75,24.00,23.25,23.50,23.00,23.50,23.25,22.50,23.75,23.75,23.50,22.75,23.50,23.25,22.75,22.75,22.75,23.75,23.25,23.50,23.00,23.00,23.25,22.75,23.00,23.50,23.00,23.25,23.25,22.50,22.75,22.50,23.00,23.75,22.50,22.50,23.00,22.75,22.50,22.75,22.75
2205552,0,0,5.23,44,1,-5.7,-36.8,0.1,0.594,0.530,-0.007,23.50,24.00,23.50,24.00,24.00,23.25,23.50,24.75,24.00,23.75,23.50,23.25,23.75,23.25,22.75,23.25,23.25,23.50,23.25,23.25,23.25,23.50,22.50,23.00,23.50,23.25,23.25,23.00,23.00,23.00,22.50,23.25,23.25,23.50,23.25,23.00,23.25,22.50,22.50,22.50,23.50,22.75,23.00,23.25,22.75,23.00,23.00,23.00,23.75,22.75,23.00,22.25,22.50,22.50,22.50,23.00,23.50,22.75,23.00,22.75,23.00,22.50,22.00,22.75
2205652,0,0,5.23,45,1,61.0,-24.0,-18.7,0.669,0.532,-0.186,24.25,24.25,24.00,23.75,24.00,23.25,24.00,26.50,24.25,24.00,23.75,24.00,23.50,23.50,23.50,24.00,23.75,24.00,23.75,23.25,23.25,23.25,23.25,24.25,23.75,23.75,23.75,23.25,23.50,23.00,22.50,23.75,23.50,23.50,23.00,23.25,23.25,22.75,22.50,23.25,23.75,23.00,22.75,23.25,23.00,22.75,22.75,23.50,23.50,23.00,23.00,22.75,22.75,22.75,23.25,23.50,24.00,23.00,22.75,23.25,22.25,22.25,22.50,22.75
2205752,0,0,5.23,45,1,22.6,58.1,-15.8,0.730,0.684,-0.279,24.00,24.75,24.25,23.75,24.00,24.25,24.50,25.75,23.75,24.00,23.50,23.75,23.50,23.25,23.25,24.00,23.75,24.00,23.25,23.50,23.00,23.50,23.25,23.75,23.75,23.75,23.25,23.25,23.50,23.00,22.50,24.00,23.50,23.25,23.00,23.25,22.75,22.75,23.00,23.00,24.00,23.00,23.25,23.00,22.75,23.00,22.75,23.25,24.00,23.00,23.25,22.75,22.50,22.75,24.00,22.25,23.75,23.00,23.25,22.75,22.50,22.50,22.25,22.50
2205852,0,0,5.23,47,1,-1.5,37.6,8.6,0.552,0.643,-0.166,24.25,25.00,23.50,23.75,23.75,24.25,24.75,25.50,24.50,24.00,23.75,24.00,23.25,23.25,23.25,24.50,24.25,24.00,23.25,23.25,23.25,23.25,22.75,24.25,23.50,23.50,23.50,23.00,23.50,22.75,22.75,23.50,23.75,23.00,23.25,23.00,23.25,22.75,23.25,23.25,24.25,23.00,23.00,23.50,22.50,23.25,23.00,23.50,24.00,23.25,23.25,23.25,22.50,22.25,22.75,23.25,22.75,23.00,22.75,23.00,22.75,22.50,22.00,22.50
2205952,0,0,5.23,45,1,70.3,10.6,11.6,0.900,0.679,-0.203,24.25,25.00,23.50,23.75,23.75,24.25,24.75,25.50,24.50,24.00,23.75,24.00,23.25,23.25,23.25,24.50,24.25,24.00,23.25,23.25,23.25,23.25,22.75,24.25,23.50,23.50,23.50,23.00,23.50,22.75,22.75,23.50,23.75,23.00,23.25,23.00,23.25,22.75,23.25,23.25,24.25,23.00,23.00,23.50,22.50,23.25,23.00,23.50,24.00,23.25,23.25,23.25,22.50,22.25,22.75,23.25,22.75,23.00,22.75,23.00,22.75,22.50,22.00,22.50
2206052,0,0,5.23,45,1,32.4,40.3,-35.9,0.738,0.772,-0.442,24.00,24.25,23.50,24.00,24.25,24.25,24.50,25.00,24.25,24.00,23.50,23.25,23.25,23.75,23.50,25.50,23.25,23.75,23.50,23.25,23.00,23.50,23.50,24.00,23.75,23.00,23.50,23.00,23.00,23.25,23.25,24.00,23.50,23.25,23.25,23.25,23.50,22.50,23.00,23.00,23.50,23.50,23.25,23.25,22.50,23.25,23.00,23.00,23.75,23.50,22.75,22.50,22.25,22.50,22.75,23.00,23.00,23.00,23.25,23.00,22.50,22.75,22.50,22.75
2206152,0,0,5.23,45,1,15.8,41.3,10.4,0.753,0.727,-0.095,24.00,24.25,23.75,24.75,24.25,24.25,24.75,25.75,24.00,23.50,23.50,23.75,23.00,23.50,24.25,25.00,23.00,23.50,23.25,23.50,23.25,23.75,22.75,23.00,24.00,23.25,23.75,23.25,23.25,22.75,22.50,23.50,23.50,23.25,23.25,23.25,23.00,22.25,23.00,22.75,23.50,23.00,23.25,23.00,23.00,23.00,23.00,23.00,23.50,22.75,23.00,22.25,22.50,22.50,22.25,22.25,23.75,23.00,22.50,22.25,22.75,22.50,22.25,22.25
2206252,0,0,5.23,47,1,23.1,-11.6,-7.9,0.672,0.525,-0.141,23.75,24.25,23.50,24.00,24.00,24.75,24.75,25.75,24.25,24.00,23.50,23.50,23.50,23.25,23.75,24.75,23.75,24.00,23.75,23.25,23.50,23.75,23.25,23.00,23.75,23.50,23.50,22.75,23.75,23.25,23.25,24.25,23.50,23.50,23.50,23.25,22.75,22.50,23.00,23.25,23.25,23.00,23.00,22.75,23.00,23.25,22.75,22.75,23.25,23.00,22.75,22.75,22.25,22.50,22.25,22.75,22.75,22.50,22.50,23.25,22.50,22.75,21.75,23.00
2206352,0,0,5.23,44,1,66.1,-28.5,5.9,0.779,0.730,-0.058,24.25,24.50,24.50,24.25,24.50,24.75,26.25,25.75,24.25,24.00,23.75,23.50,23.50,23.75,23.75,24.00,23.25,23.75,23.75,23.25,23.50,23.50,23.25,23.25,24.00,23.50,23.50,23.00,23.25,23.25,23.50,23.75,23.50,23.00,23.25,23.25,23.50,23.00,23.25,23.25,23.75,22.75,23.00,23.00,23.00,23.25,22.75,23.00,23.50,23.25,23.00,22.75,22.25,22.50,22.50,22.50,23.50,23.25,22.50,22.75,22.25,22.50,22.50,22.75
2206452,0,0,5.23,44,1,47.3,115.2,8.1,1.035,1.003,-0.680,24.00,24.50,24.25,24.25,24.50,24.50,25.50,25.50,23.75,24.25,23.50,23.50,23.25,23.75,23.50,24.00,23.50,23.75,23.00,23.25,23.25,23.50,23.75,22.75,23.25,23.25,23.50,22.75,22.75,23.00,23.25,23.50,23.75,23.50,23.00,23.25,23.25,23.00,23.25,22.75,23.75,22.75,22.50,23.25,22.50,23.25,22.25,23.00,23.50,22.75,23.25,22.75,22.00,22.50,22.50,22.50,23.25,23.00,22.50,23.25,22.50,22.25,22.25,22.75
2206552,0,0,5.23,44,1,45.0,31.8,-45.8,0.652,0.581,0.177,24.00,23.75,24.00,23.50,24.50,24.50,25.00,24.75,23.50,23.75,23.00,23.25,23.50,23.25,23.25,23.50,23.25,24.00,23.25,23.25,23.00,23.50,23.75,23.00,23.50,23.25,23.50,22.75,23.50,23.00,23.25,23.00,23.50,23.00,23.00,23.75,23.00,23.00,22.50,22.75,23.75,22.75,23.00,22.50,22.25,22.75,22.50,23.00,23.50,22.75,22.75,22.75,22.50,22.50,22.25,22.50,23.25,22.50,22.50,22.50,22.75,22.75,21.50,22.25
2206652,0,0,5.23,47,1,85.4,55.6,15.2,0.636,0.671,-0.236,24.00,23.75,23.25,24.00,23.75,23.75,22.75,23.50,23.25,23.75,22.50,23.00,22.50,23.25,23.00,22.75,23.50,23.50,23.00,23.00,23.25,23.50,23.25,23.00,23.50,23.25,23.00,22.75,23.00,22.75,23.00,22.75,23.50,22.75,22.50,23.00,22.75,22.50,22.75,22.25,23.50,22.50,22.75,22.75,22.25,23.25,22.25,22.50,23.00,22.50,22.50,22.00,22.25,22.25,22.00,22.50,23.50,22.50,22.50,23.00,22.25,22.00,21.75,22.50
2206752,0,0,5.23,44,1,73.3,4.7,-37.6,0.864,0.613,-0.074,24.00,23.75,24.00,23.75,23.50,23.75,23.50,23.75,23.50,23.50,23.25,23.00,23.00,23.50,23.50,23.00,23.25,23.25,23.00,22.75,23.00,23.50,23.50,23.00,23.50,23.00,23.00,22.75,23.00,23.00,22.00,22.75,23.00,23.25,22.75,23.25,23.00,22.25,22.50,23.00,23.25,22.75,23.00,22.75,22.50,23.00,22.25,22.50,23.75,22.75,22.75,22.50,22.00,22.50,22.00,23.00,23.50,22.50,22.75,23.00,22.25,22.25,21.75,22.00
2206852,0,0,5.23,44,1,59.9,42.2,2.6,0.682,0.784,-0.280,24.00,24.00,23.50,23.50,23.75,24.25,23.75,23.75,23.50,23.75,22.75,23.00,23.25,23.75,22.25,23.00,23.50,23.75,23.25,22.75,23.00,23.50,22.75,22.75,23.75,23.00,23.25,22.25,23.00,22.50,22.25,22.50,23.00,22.50,23.00,23.00,22.50,22.25,22.50,22.00,23.50,23.00,22.50,23.25,22.25,23.25,22.75,22.50,23.75,22.75,22.75,22.50,22.25,22.50,21.75,22.50,23.75,23.00,22.75,22.50,22.00,22.50,21.75,21.50
2206952,0,0,5.23,45,1,13.8,20.2,-12.9,0.684,0.586,-0.056,23.75,23.50,23.75,23.75,24.00,24.25,23.00,23.00,23.50,23.75,23.25,23.00,23.00,23.25,23.00,23.25,22.75,23.25,23.00,23.00,23.00,22.75,22.50,22.50,23.00,22.75,23.00,22.50,22.75,22.50,22.25,23.25,23.50,23.50,22.75,22.75,23.00,22.75,23.00,22.25,23.25,23.25,22.50,22.75,22.25,22.75,22.25,22.50,23.50,22.50,23.00,22.50,21.75,22.25,22.50,22.25,24.00,23.00,23.25,22.50,22.00,22.00,21.50,22.00
2207052,0,0,5.23,48,1,32.3,37.5,-30.3,0.670,0.630,-0.069,24.00,23.75,23.50,23.50,24.00,23.50,23.25,23.00,24.00,23.50,22.75,22.75,23.00,23.00,22.25,23.00,23.00,23.50,22.75,22.75,22.75,22.25,22.75,22.50,23.50,23.00,22.75,22.25,22.75,22.75,22.25,22.75,23.25,22.50,22.50,22.50,23.00,22.75,22.50,22.25,23.00,23.00,22.75,22.50,22.25,22.50,22.00,22.50,23.00,22.75,22.75,22.25,21.75,22.25,22.50,22.00,23.50,22.75,22.00,22.50,22.50,22.00,21.75,22.00
2207152,0,0,5.23,44,1,28.1,23.2,-30.7,0.626,0.742,-0.172,23.25,23.50,22.75,23.50,23.75,23.00,22.50,22.75,23.75,23.00,22.75,22.75,23.00,22.25,22.50,22.75,23.25,23.00,22.75,22.75,22.75,22.50,22.50,22.50,23.25,22.50,22.75,22.25,22.50,22.25,22.50,22.25,22.25,22.50,22.25,22.25,22.25,22.00,21.75,22.00,22.75,22.25,22.50,22.50,22.00,22.00,21.50,22.25,22.75,22.75,22.50,22.00,21.75,22.00,22.00,22.50,22.50,22.50,21.50,22.25,22.00,22.00,21.25,21.75
2207252,0,0,5.23,44,1,-7.9,32.1,-56.4,0.759,0.625,0.097,23.75,23.50,23.00,23.75,23.50,23.50,23.25,23.25,23.75,23.25,22.75,23.00,23.00,23.00,22.50,22.50,22.75,23.25,22.25,22.75,23.00,23.00,22.50,22.75,23.25,23.00,22.50,22.25,22.25,22.75,22.00,22.50,23.00,22.75,22.75,22.50,22.25,22.00,22.50,22.00,23.00,22.25,22.50,22.50,22.00,22.50,22.25,22.25,22.75,23.00,22.75,22.50,22.00,22.25,21.75,22.00,23.00,23.25,22.50,22.25,22.25,22.00,21.25,22.25
2207352,0,0,5.23,44,1,40.6,102.2,-36.8,0.737,0.877,-0.144,23.75,23.50,23.00,23.25,23.50,23.00,22.50,22.75,23.75,23.25,22.75,22.50,22.50,23.00,22.50,22.25,23.00,23.25,22.75,22.25,22.75,22.75,22.25,21.75,23.00,22.75,22.50,22.00,22.75,22.50,22.50,22.50,22.75,22.50,22.50,22.25,22.50,21.50,22.25,22.00,22.75,22.50,22.00,22.50,22.25,22.00,22.00,22.50,23.00,22.75,22.50,22.00,22.00,21.75,22.00,22.50,23.00,22.75,22.25,22.25,22.25,21.75,21.25,21.50
2207452,0,0,5.23,48,1,47.1,92.1,-17.9,0.610,0.753,-0.039,23.25,23.50,23.25,23.00,23.00,23.25,22.75,22.25,22.75,22.75,22.75,22.50,22.50,22.75,22.75,22.50,22.75,23.00,22.25,22.25,22.50,22.75,22.50,22.00,22.75,22.50,22.25,22.25,22.50,22.25,22.25,22.50,22.75,22.50,22.50,21.75,22.50,21.75,22.00,22.25,22.50,22.25,22.25,22.25,22.25,22.50,22.00,22.00,22.50,21.75,22.50,22.00,21.75,22.00,21.50,22.25,22.50,22.50,22.50,22.25,22.00,22.00,21.25,22.00
2207552,0,0,5.23,44,1,102.4,90.0,-39.1,0.679,0.728,-0.063,23.25,23.25,23.25,23.25,23.25,23.25,22.25,22.50,23.00,23.00,22.25,22.25,22.75,22.50,22.00,22.00,22.75,22.50,22.00,22.25,21.75,22.50,22.25,21.75,22.75,22.25,22.50,21.50,22.25,21.75,21.75,22.50,22.75,22.50,22.00,22.50,22.25,21.75,22.00,22.00,22.75,22.00,22.00,22.00,22.25,22.25,21.75,22.00,22.50,22.75,22.25,22.00,22.00,21.75,21.75,21.75,23.25,22.25,22.00,22.00,22.50,21.50,21.75,21.75
2207652,0,0,5.23,44,1,89.4,61.0,-37.1,0.756,0.866,0.077,23.25,23.25,23.25,22.75,22.50,23.00,22.00,21.75,22.50,22.50,22.00,22.75,22.25,22.00,21.75,22.00,22.75,22.50,22.00,21.75,21.50,22.25,21.50,22.50,22.25,22.50,22.25,21.50,22.00,22.00,21.75,22.25,22.25,22.25,22.25,22.00,22.00,21.75,21.75,21.25,22.50,21.75,22.00,22.00,21.50,22.25,21.50,21.50,22.75,22.25,22.00,21.25,21.25,21.50,22.25,21.50,23.25,22.00,21.00,21.75,21.50,21.75,21.25,21.75
2207752,0,0,5.23,45,1,52.4,91.6,-13.4,0.708,0.970,-0.293,23.00,23.25,23.00,22.50,22.25,22.50,22.25,22.25,23.00,22.75,22.25,22.25,22.00,22.25,21.75,22.25,22.75,22.50,22.25,22.00,22.25,22.50,22.00,22.25,22.75,22.25,22.25,21.75,22.25,21.50,21.75,22.25,22.25,21.75,22.25,22.00,22.25,21.75,22.00,21.75,22.50,21.75,22.25,21.75,21.75,22.00,21.25,22.25,24.50,21.75,21.75,21.50,21.25,21.75,21.75,21.25,23.25,21.75,21.75,21.50,21.25,21.50,21.25,21.75
2207852,0,0,5.24,48,1,26.7,82.0,-14.4,0.722,0.742,0.171,22.75,23.50,22.50,22.75,22.75,22.75,22.25,22.25,23.00,23.25,22.00,22.25,22.50,22.25,22.25,22.50,22.50,22.50,22.00,22.00,22.00,22.25,21.75,21.50,22.25,22.50,21.75,21.50,21.75,22.00,21.75,22.50,22.75,21.75,22.00,21.75,22.00,21.50,21.75,21.25,22.75,21.75,22.00,22.00,21.50,21.75,21.25,21.75,23.75,22.00,22.00,21.50,21.00,21.50,21.50,21.75,23.75,21.50,21.50,21.75,22.00,21.50,21.25,21.50
2207952,0,0,5.24,45,1,-10.1,57.6,-13.8,0.617,0.851,-0.030,23.25,23.00,22.25,23.00,22.50,22.75,22.50,21.75,22.25,22.75,21.75,22.50,22.00,22.25,21.50,21.75,22.25,22.50,22.00,22.00,22.25,21.75,21.75,21.75,22.50,22.25,22.00,22.00,22.25,21.50,22.00,22.25,22.25,21.75,22.00,21.75,22.25,21.25,21.50,21.50,22.75,22.25,22.00,22.00,21.25,21.75,21.00,21.25,24.25,21.50,21.75,21.50,21.00,21.50,21.00,21.50,25.50,22.25,21.50,22.00,21.00,21.50,21.00,21.00
2208052,0,0,5.23,43,1,11.0,37.2,-42.7,0.623,0.797,0.187,22.25,23.25,22.25,22.50,22.50,22.50,22.25,22.25,22.75,22.50,22.25,22.00,22.25,22.25,21.50,22.25,22.25,22.00,22.00,22.25,21.50,22.25,21.50,21.50,22.25,22.25,21.75,21.75,21.75,22.00,21.25,21.75,22.25,21.75,21.75,21.50,22.25,21.50,21.25,21.50,22.00,21.25,21.75,21.50,21.00,21.75,21.25,21.75,22.50,21.75,22.25,21.75,20.75,21.25,20.75,21.25,25.50,22.50,21.75,21.75,21.25,21.00,21.25,21.25
2208152,0,0,5.23,44,1,30.7,57.1,-15.6,0.676,0.942,-0.038,22.25,22.75,22.00,22.50,22.25,22.25,21.75,22.25,22.75,22.75,21.75,21.75,21.50,22.00,21.50,21.50,22.25,22.25,21.50,21.75,21.50,21.75,21.75,20.75,22.00,21.50,21.75,21.25,21.25,21.50,21.25,21.50,21.75,21.75,21.75,21.50,21.75,21.00,21.50,21.25,22.25,21.50,21.50,21.50,21.00,21.25,21.00,21.00,23.00,21.50,21.75,20.75,20.50,20.75,21.00,21.75,26.25,25.25,21.50,21.50,20.50,21.25,21.00,21.00
2208252,0,0,5.23,48,1,-46.2,59.8,5.8,0.568,0.706,0.163,23.00,22.75,22.50,22.75,22.75,22.50,22.50,22.25,22.25,22.75,21.25,22.00,21.75,21.75,22.00,21.50,22.00,22.00,21.75,21.50,21.75,22.00,21.50,22.00,22.50,21.75,21.50,21.50,22.00,21.75,21.00,21.75,22.00,21.25,21.75,21.75,21.75,21.25,21.75,21.50,22.25,22.00,21.75,22.00,21.25,21.75,21.00,21.25,22.00,21.75,21.50,21.25,20.50,20.75,21.00,22.25,24.50,23.25,21.50,21.25,21.25,21.25,21.25,22.00
2208352,0,0,5.23,44,1,-29.6,50.9,-25.2,0.376,0.625,0.179,22.75,23.00,22.75,22.50,22.50,22.75,21.50,22.25,22.50,22.25,22.00,21.75,21.50,22.00,21.50,21.50,22.00,22.50,21.75,21.50,21.50,21.50,21.25,21.75,22.25,22.00,21.75,21.25,21.75,21.25,21.50,22.00,21.75,21.75,22.00,21.75,22.00,21.50,21.75,21.50,22.25,21.75,21.75,21.50,21.25,21.50,21.00,21.50,22.00,21.50,22.00,21.50,20.50,20.75,21.00,21.25,22.25,21.25,21.75,21.75,21.25,21.00,20.75,21.00
2208452,0,0,5.23,44,1,-23.2,66.0,0.2,0.330,0.658,0.208,23.00,22.75,22.50,22.25,22.50,22.50,22.25,21.75,22.50,22.25,21.75,21.75,21.50,21.75,21.50,22.00,22.00,22.00,21.75,21.75,21.75,22.00,21.50,21.50,22.50,22.25,22.00,21.25,21.50,21.75,21.00,21.50,22.25,22.00,21.75,21.75,21.50,21.25,21.50,21.00,22.50,21.50,21.50,21.75,22.00,21.00,21.00,21.25,22.50,21.75,21.50,21.50,20.75,21.00,21.50,21.00,22.00,22.00,21.75,21.50,21.25,21.25,20.75,21.00
2208552,0,0,5.23,45,1,5.4,33.1,-11.2,0.514,0.784,0.373,23.00,22.75,22.50,22.25,22.50,22.50,22.25,21.75,22.50,22.25,21.75,21.75,21.50,21.75,21.50,22.00,22.00,22.00,21.75,21.75,21.75,22.00,21.50,21.50,22.50,22.25,22.00,21.25,21.50,21.75,21.00,21.50,22.25,22.00,21.75,21.75,21.50,21.25,21.50,21.00,22.50,21.50,21.50,21.75,22.00,21.00,21.00,21.25,22.50,21.75,21.50,21.50,20.75,21.00,21.50,21.00,22.00,22.00,21.75,21.50,21.25,21.25,20.75,21.00
2208652,0,0,5.23,48,1,-16.3,22.5,-22.9,0.432,0.897,0.581,22.75,22.75,22.00,22.25,21.75,22.50,21.75,21.75,23.00,22.25,22.00,22.00,21.50,21.75,21.50,22.25,22.50,22.25,21.75,21.50,21.50,21.75,21.50,21.50,22.50,21.75,22.00,20.75,21.75,21.00,21.00,21.75,22.25,21.75,21.75,21.50,21.50,20.75,21.25,21.00,22.25,21.25,21.25,21.50,21.75,21.25,21.25,21.00,22.25,21.25,21.75,21.25,21.00,21.25,21.00,21.25,22.00,21.75,21.50,21.75,20.75,21.75,20.50,21.00
2208752,0,0,5.23,44,1,-48.8,74.1,-15.2,0.344,0.987,0.529,22.50,22.75,21.75,22.25,22.25,22.50,21.75,21.25,21.75,22.25,21.75,21.75,21.75,21.50,20.75,22.00,21.50,22.00,21.25,21.50,21.25,21.50,20.75,21.00,21.75,21.75,21.25,20.75,21.50,21.00,20.75,21.50,22.00,21.25,21.25,21.50,20.75,21.00,21.00,21.00,22.25,21.75,21.00,21.25,21.00,21.25,20.50,21.50,21.75,21.50,21.50,21.00,20.75,21.00,21.00,21.25,21.50,21.25,21.50,21.25,21.25,20.50,20.25,20.50
2208852,0,0,5.23,44,1,-121.5,1.3,6.0,0.114,0.489,0.554,22.25,22.50,22.25,22.50,22.25,22.00,21.75,22.00,22.00,22.25,21.75,21.75,21.25,21.75,21.00,21.50,22.00,22.25,22.00,21.50,21.25,21.25,21.00,21.50,21.75,21.75,21.50,21.25,21.50,21.25,20.75,22.00,22.00,21.50,21.75,21.50,21.25,21.25,21.25,21.00,22.00,21.50,21.25,21.50,21.25,21.25,21.00,21.50,22.00,21.50,21.50,21.50,21.00,21.00,20.75,21.25,22.50,21.25,21.00,21.25,21.25,21.00,20.50,21.50
2208952,0,0,5.23,44,1,-23.1,41.0,24.7,0.373,0.423,0.587,22.75,22.75,22.50,21.75,22.00,22.00,21.75,21.50,22.50,22.00,22.00,21.75,21.50,21.50,21.75,21.50,22.25,22.00,21.50,21.50,21.25,21.75,21.50,21.75,22.00,21.75,21.75,21.00,21.50,21.00,21.00,21.50,21.50,21.00,21.25,21.00,21.50,20.75,20.50,21.00,22.25,21.25,21.00,21.00,21.00,21.25,20.75,21.75,22.25,21.50,21.25,21.25,21.00,20.75,20.75,21.00,22.00,21.50,21.00,21.50,21.75,21.00,20.75,21.25
2209052,0,0,5.23,48,1,-52.3,8.1,-28.1,0.338,0.594,0.720,22.25,22.75,22.25,22.50,22.50,22.50,22.25,22.25,21.75,22.25,21.50,21.50,21.50,21.00,21.25,21.50,22.25,21.75,21.25,21.25,21.25,21.25,21.50,21.25,22.00,21.50,21.50,20.75,21.25,20.75,21.00,21.50,21.75,21.50,21.75,21.50,21.25,20.75,21.00,21.00,22.00,21.25,21.25,21.25,21.25,21.00,20.75,21.25,21.75,21.25,21.50,20.75,20.75,20.75,20.75,20.75,21.25,21.50,21.00,21.50,20.75,21.50,20.25,21.75
2209152,0,0,5.23,44,1,-71.9,-1.0,-42.0,0.474,0.670,0.845,22.00,22.75,21.75,22.50,22.00,21.75,21.50,21.00,22.00,21.50,21.25,21.75,21.50,22.00,20.75,21.00,21.50,22.00,21.50,21.00,21.00,21.25,21.25,21.00,22.25,21.75,21.25,21.25,21.50,21.00,20.50,21.25,22.00,21.75,21.25,20.75,21.00,20.50,21.00,20.75,22.00,21.25,20.75,21.25,21.00,21.25,20.50,21.25,22.00,21.25,21.50,20.75,21.00,20.50,21.00,21.25,21.50,21.25,21.00,21.25,21.00,21.00,20.50,21.25
2209252,0,0,5.23,44,1,-85.0,10.4,-49.5,0.571,0.436,1.086,21.75,21.50,22.25,22.25,22.00,22.00,21.75,21.50,21.75,21.75,21.50,21.75,21.00,21.25,20.25,20.75,21.50,21.25,20.75,21.00,21.00,21.50,21.25,21.00,21.25,21.00,21.00,20.75,20.75,21.25,20.25,21.75,21.25,21.25,21.00,20.50,20.75,20.75,20.25,20.75,22.00,20.75,20.75,21.25,20.75,20.25,20.50,21.25,21.75,21.25,21.00,20.25,20.25,20.25,20.75,20.25,21.50,21.50,20.75,21.00,21.25,20.50,19.75,20.50
2209352,0,0,5.23,44,1,-66.5,2.2,-44.6,0.093,0.313,0.737,22.00,22.50,21.25,21.00,22.25,22.25,21.25,21.75,21.75,21.75,21.75,21.50,21.75,21.50,21.25,21.25,21.75,21.75,21.50,21.50,21.50,21.50,21.25,21.50,21.75,21.50,21.25,20.50,21.00,21.00,20.50,20.75,21.75,21.00,21.00,21.25,20.75,20.75,21.25,21.75,22.00,20.75,21.25,20.50,20.75,21.00,20.75,20.75,21.50,20.50,20.75,20.75,20.25,21.00,20.50,20.75,21.75,21.00,21.25,21.25,20.75,20.75,20.50,21.50
2209452,0,0,5.23,47,1,-14.3,6.2,-33.4,0.047,0.202,0.712,22.00,21.25,21.75,20.75,22.00,21.50,21.00,21.00,22.00,21.25,21.50,20.50,21.00,21.00,21.25,21.00,21.50,21.25,21.25,20.75,21.50,21.75,20.75,21.00,21.75,21.25,21.25,21.25,21.50,21.25,20.25,21.25,21.50,21.25,21.25,21.00,21.00,21.00,21.00,21.50,21.50,21.00,20.75,20.75,21.25,21.00,21.25,21.25,21.25,21.00,21.00,20.75,20.50,20.75,20.75,20.75,21.25,21.75,21.00,21.25,21.00,20.75,20.75,21.50
2209552,0,0,5.23,44,1,-12.9,35.8,-26.2,0.038,0.226,1.045,21.50,21.75,21.25,21.50,20.75,21.50,20.25,21.00,22.25,21.50,21.25,21.25,20.50,21.50,20.50,20.75,21.50,21.75,21.00,20.75,19.75,21.50,21.00,21.25,21.75,21.25,21.50,21.00,21.25,21.25,21.25,21.50,21.50,21.00,20.75,21.50,21.25,21.00,21.25,21.00,22.00,20.75,21.00,21.25,21.00,21.25,21.00,21.00,21.50,20.75,21.00,20.50,20.75,20.75,20.75,21.00,21.25,21.00,20.75,21.50,20.50,21.25,20.50,21.00
2209652,0,0,5.23,44,1,-24.6,11.6,-2.3,-0.026,0.216,1.088,21.75,22.00,21.00,21.25,21.25,21.25,21.00,21.00,22.00,21.50,21.25,21.25,20.75,21.25,21.00,20.75,21.75,21.75,21.50,21.00,20.00,21.00,21.50,21.00,21.75,21.50,21.25,21.00,21.00,21.00,21.25,21.75,21.25,21.00,21.00,21.00,21.25,21.25,21.50,21.25,21.25,21.00,20.50,21.00,20.75,20.50,20.25,21.25,21.50,20.50,21.25,20.75,20.00,20.50,21.00,20.75,21.75,20.75,20.75,21.00,20.50,20.75,20.50,21.25
2209752,0,0,5.23,45,1,-50.6,-1.7,14.7,0.091,0.187,1.201,21.75,21.50,21.25,21.00,20.50,20.75,20.75,20.50,21.75,21.00,21.00,21.00,20.75,21.00,21.00,20.75,21.00,21.00,20.50,21.00,20.25,20.75,21.25,20.50,21.50,21.25,21.50,20.75,20.25,20.50,20.75,21.25,21.25,20.75,20.75,20.75,21.50,21.00,21.00,21.25,21.00,20.50,21.00,21.00,20.50,20.50,20.75,21.00,21.00,20.75,21.00,20.25,20.00,20.50,20.75,20.75,21.50,21.25,21.00,20.75,20.25,20.50,19.75,20.25
2209852,0,0,5.23,48,1,0.3,-1.9,-1.2,0.091,-0.029,1.030,21.50,22.00,21.25,20.75,21.25,21.75,21.25,20.75,21.25,21.00,20.75,20.50,20.25,21.00,20.50,20.75,21.75,21.00,20.75,21.00,20.50,21.00,21.00,20.50,21.75,21.25,21.00,20.50,20.00,20.50,20.50,21.75,21.25,20.75,21.25,21.25,21.00,21.50,21.50,21.25,21.25,20.50,21.00,21.00,21.25,21.00,20.50,21.25,21.75,20.50,21.00,20.75,20.50,20.25,20.75,20.75,21.25,21.25,20.75,20.75,20.75,20.75,20.25,21.00
2209952,0,0,5.23,44,1,9.0,3.9,-2.0,0.069,0.086,0.814,21.50,21.50,20.75,20.75,20.50,20.50,20.00,20.25,21.75,21.00,20.75,21.00,20.75,20.50,20.25,20.50,21.25,21.50,20.75,20.50,20.50,21.00,20.75,20.25,21.75,21.75,20.75,20.50,19.75,21.00,20.75,22.00,21.25,21.00,20.75,21.00,20.25,21.00,21.00,21.00,21.00,20.25,21.00,21.25,21.00,21.50,20.75,21.75,21.50,20.25,21.00,20.75,20.25,20.50,20.25,20.75,21.25,21.00,21.00,21.25,20.50,20.25,20.00,20.75
2210052,0,0,5.23,44,1,7.7,-9.5,6.7,0.109,0.063,0.884,22.00,21.50,20.50,21.25,21.00,20.50,21.00,20.25,22.00,21.00,20.75,20.50,20.50,21.00,20.00,20.00,21.75,21.25,20.50,20.50,20.25,21.25,21.00,20.50,21.75,21.25,20.75,20.00,19.50,20.75,20.75,21.00,21.25,21.00,21.00,21.00,20.75,20.75,21.25,21.00,21.25,20.75,21.00,21.25,21.00,21.75,20.50,21.25,21.25,20.50,21.00,21.00,20.50,20.50,20.50,20.50,21.00,21.00,21.00,20.75,20.75,20.75,20.00,20.50
2210152,0,0,5.23,44,1,-1.2,-1.7,-38.0,0.124,0.111,0.945,21.75,21.75,20.75,21.25,21.25,20.75,20.50,20.50,21.25,21.25,20.75,20.50,20.75,20.25,20.25,21.00,21.00,21.25,20.75,21.00,20.25,21.00,21.00,20.50,21.25,21.75,21.00,20.50,19.25,21.00,20.25,21.50,21.25,21.25,21.00,21.25,20.50,21.25,21.00,21.00,21.75,20.50,20.75,21.00,21.25,21.25,21.00,21.25,21.50,21.00,21.25,19.75,20.50,20.50,21.00,20.25,21.75,21.00,20.75,20.75,21.00,20.75,19.50,20.00
2210252,0,0,5.23,47,1,6.4,13.5,-50.1,0.033,0.073,1.076,21.25,21.25,20.50,20.75,21.00,20.75,20.50,20.00,21.25,21.50,20.50,20.75,20.75,20.50,20.25,19.50,21.25,21.00,20.50,20.50,20.00,21.00,21.00,21.00,21.25,21.00,21.00,20.50,19.50,20.25,20.50,21.00,21.00,20.75,20.50,20.50,20.50,20.75,21.25,21.25,21.25,20.00,20.25,20.75,21.25,21.25,21.00,21.00,21.50,20.75,20.75,20.50,19.75,20.00,20.50,20.25,21.75,21.50,20.50,21.00,20.00,20.50,19.75,20.25
2210352,0,0,5.23,44,1,-6.0,-6.6,-30.7,-0.060,-0.018,1.300,22.00,21.50,20.75,20.75,21.00,20.75,20.50,20.25,21.50,21.50,20.75,20.50,20.25,20.75,20.25,20.50,20.25,21.00,20.50,20.50,20.50,19.75,20.75,20.50,21.25,21.25,21.00,20.50,20.25,19.25,20.50,20.75,21.50,20.75,21.00,21.00,21.00,20.25,21.25,20.75,21.00,20.25,21.00,20.50,21.25,21.75,21.50,20.75,21.00,21.00,21.00,20.25,20.25,20.50,20.25,20.25,21.25,21.00,20.50,21.00,20.50,20.50,20.25,19.75
2210452,0,0,5.23,44,1,-21.7,-22.8,9.0,-0.048,-0.077,1.063,21.50,21.50,20.75,21.25,20.75,21.25,21.25,21.25,21.75,21.50,20.75,20.75,20.50,20.75,20.50,21.00,20.75,21.00,20.50,20.25,21.00,20.75,20.75,20.75,21.50,21.00,20.75,20.75,21.25,19.75,20.00,21.25,21.00,20.75,21.00,21.25,21.25,20.00,20.25,21.00,21.25,20.50,20.75,21.00,21.00,21.50,21.25,22.25,21.25,20.75,21.00,20.25,20.50,20.25,20.75,20.50,21.25,21.00,20.50,20.75,20.50,20.75,20.25,21.25
2210552,0,0,5.23,44,1,-17.4,-7.9,16.5,-0.073,-0.120,0.763,22.00,21.75,20.75,20.75,21.00,20.50,20.50,20.50,21.75,21.50,20.75,20.50,20.75,20.50,20.50,20.50,20.50,21.50,20.50,20.75,20.50,20.25,21.00,21.00,21.25,20.75,21.00,20.25,20.50,19.75,19.75,20.75,21.25,20.75,20.75,21.00,20.50,18.75,20.25,21.00,21.25,20.75,20.50,20.50,20.75,21.25,21.50,21.50,21.00,20.25,20.50,20.00,20.00,20.75,21.25,21.50,21.75,21.00,20.75,20.75,20.75,20.75,20.00,20.50
2210652,0,0,5.23,48,1,4.8,19.8,26.6,-0.101,-0.084,0.628,21.75,21.50,21.00,20.75,21.00,21.00,20.75,20.25,21.25,21.50,21.00,20.25,20.25,20.50,20.25,20.50,20.75,20.75,20.25,20.75,20.75,21.00,21.25,20.75,21.25,21.00,21.00,20.50,20.75,19.50,20.25,21.25,20.75,21.00,20.50,21.25,20.50,18.75,21.00,21.25,21.25,20.50,21.00,21.00,21.25,21.75,21.50,21.00,21.50,20.75,21.25,20.25,20.75,20.75,21.50,21.50,21.00,21.25,21.00,20.75,21.00,20.50,20.25,20.75
2210752,0,0,5.23,44,1,-29.3,16.2,41.5,-0.023,-0.145,0.727,21.50,21.25,20.50,21.00,20.75,20.75,20.00,20.25,21.75,21.00,20.25,20.25,20.25,20.25,20.00,20.00,20.75,20.75,20.50,20.50,20.25,20.75,21.00,20.25,20.75,21.00,20.75,20.25,20.50,19.00,20.75,21.25,21.00,20.75,20.75,20.75,20.25,18.50,21.00,20.75,21.25,20.50,21.00,21.00,21.25,21.75,21.00,21.00,20.50,20.50,20.25,20.00,20.25,20.75,21.50,21.00,20.75,20.50,20.25,20.75,20.50,20.25,19.50,20.50
2210852,0,0,5.23,44,1,-35.2,6.8,39.4,0.053,-0.241,0.975,21.75,21.00,20.75,21.00,20.75,20.50,20.50,20.50,21.25,21.25,20.25,20.75,20.25,20.75,20.50,19.75,20.75,20.50,20.25,20.50,20.50,21.00,21.00,20.00,21.50,21.25,21.00,20.50,19.50,20.00,20.25,21.00,20.75,20.50,20.50,20.75,18.75,19.75,20.75,20.75,21.50,20.25,20.75,21.00,19.50,21.00,20.75,21.00,21.50,21.25,21.00,21.50,21.50,21.75,21.50,21.00,21.00,21.25,20.75,21.50,21.00,21.00,20.50,20.75
2210952,0,0,5.23,45,1,-15.1,-29.3,27.7,0.131,-0.199,0.840,20.75,21.00,21.00,20.75,20.50,20.75,20.50,20.50,20.50,20.00,19.75,20.25,20.00,20.25,19.50,20.00,20.75,20.75,20.50,20.50,20.25,20.75,20.00,20.00,20.75,20.75,20.75,20.25,20.75,21.00,20.00,21.00,21.50,21.00,20.50,19.75,19.25,20.50,20.75,20.50,21.50,20.75,20.50,19.50,19.25,20.50,20.50,20.75,21.25,21.00,21.75,21.75,21.50,21.75,20.50,21.50,21.50,21.25,20.75,21.00,21.25,21.75,20.25,20.75
2211052,0,0,5.23,48,1,-0.1,-11.3,-3.8,0.032,-0.094,0.930,20.75,21.00,21.00,20.75,20.50,20.75,20.50,20.50,20.50,20.00,19.75,20.25,20.00,20.25,19.50,20.00,20.75,20.75,20.50,20.50,20.25,20.75,20.00,20.00,20.75,20.75,20.75,20.25,20.75,21.00,20.00,21.00,21.50,21.00,20.50,19.75,19.25,20.50,20.75,20.50,21.50,20.75,20.50,19.50,19.25,20.50,20.50,20.75,21.25,21.00,21.75,21.75,21.50,21.75,20.50,21.50,21.50,21.25,20.75,21.00,21.25,21.75,20.25,20.75
2211152,0,0,5.23,44,1,13.6,16.0,16.2,0.116,-0.275,0.993,21.00,21.00,20.25,20.50,20.50,20.50,20.00,19.75,20.50,20.50,20.00,20.25,20.00,20.50,19.75,20.00,20.75,20.75,20.00,20.00,19.75,20.50,20.25,19.75,21.00,20.50,20.75,20.00,21.00,20.50,20.00,20.50,20.75,21.00,20.50,19.25,20.00,20.25,20.50,20.25,21.25,20.25,20.50,19.25,19.75,20.75,20.50,20.50,20.50,21.25,21.00,20.00,20.25,21.00,20.50,20.75,21.00,21.25,21.25,22.00,21.75,22.00,20.50,20.75
2211252,0,0,5.23,44,1,34.4,24.0,-8.9,0.065,-0.146,1.043,20.75,21.00,20.50,20.50,20.75,20.25,20.75,19.75,20.50,20.75,20.25,20.00,20.00,20.50,20.00,19.75,20.50,20.75,19.75,20.00,20.50,20.00,20.00,19.50,20.75,21.00,20.50,20.00,20.25,20.25,20.00,20.75,21.25,20.50,20.50,19.75,20.25,20.25,20.50,20.25,21.25,20.00,20.25,18.75,20.75,20.50,20.75,20.75,22.00,20.50,21.25,19.75,20.50,20.75,20.25,20.25,21.75,21.25,21.75,21.25,22.00,21.50,20.25,20.75
2211352,0,0,5.23,45,1,13.0,6.1,5.0,-0.046,-0.091,1.133,20.75,21.00,20.75,20.25,20.25,20.25,19.75,19.75,20.25,20.00,19.75,19.75,20.50,19.75,19.50,19.50,20.25,20.75,20.00,19.50,20.25,20.25,20.00,19.50,20.75,20.50,20.25,19.75,20.50,20.00,19.50,20.00,20.75,20.50,20.00,19.25,20.25,20.25,19.75,19.75,21.00,20.50,20.25,18.50,20.25,20.75,20.25,20.50,21.00,20.50,21.75,20.75,21.00,21.25,20.00,20.50,20.75,21.00,21.25,22.00,21.50,21.50,20.25,20.75
2211452,0,0,5.23,47,1,-17.5,-0.0,62.8,-0.100,-0.076,1.200,21.00,21.25,20.75,20.75,20.25,20.50,20.00,20.50,20.75,20.75,20.50,19.75,20.25,20.00,19.75,19.75,20.50,20.75,20.25,19.50,19.75,20.00,20.00,19.75,20.50,20.50,20.25,19.50,20.75,20.50,20.00,20.75,21.00,20.75,20.75,19.25,20.50,21.00,20.75,20.50,21.25,20.50,20.25,18.75,20.25,20.25,20.25,20.75,21.25,21.00,22.25,21.25,21.75,20.75,20.75,20.75,21.25,21.00,21.75,22.25,22.00,21.50,20.75,20.75
2211552,0,0,5.23,44,1,-7.5,2.7,17.3,-0.099,-0.046,1.215,20.75,21.25,20.50,20.75,20.50,20.25,19.75,19.75,20.75,20.50,20.50,20.75,20.25,19.75,19.75,20.50,21.00,20.75,20.00,20.00,20.00,20.25,19.75,19.75,21.00,20.50,20.25,19.50,20.75,20.25,19.75,20.00,21.00,21.00,20.25,19.50,20.75,20.50,20.25,20.25,21.75,20.75,20.00,18.75,20.75,20.75,20.75,20.50,21.75,21.00,21.50,20.25,20.75,21.00,20.75,21.25,20.75,21.50,22.00,22.50,22.00,20.75,19.75,20.75
2211652,0,0,5.23,44,1,-10.9,2.2,19.8,-0.072,-0.087,1.095,20.75,21.25,20.25,20.75,20.50,20.75,20.50,19.50,21.00,20.75,20.25,19.75,20.25,20.50,19.75,20.25,20.50,20.75,19.50,20.25,20.25,20.25,19.75,19.50,20.50,20.50,19.75,20.00,20.50,20.00,19.75,20.00,21.25,20.50,19.50,20.50,21.00,20.25,20.25,20.00,21.75,20.50,18.00,20.75,20.75,20.50,19.75,20.50,21.25,21.00,20.25,20.75,20.75,21.00,20.50,20.50,21.50,21.50,22.25,22.25,21.75,21.00,20.25,20.50
2211752,0,0,5.23,44,1,-8.7,-18.7,-1.0,0.005,-0.113,1.100,21.25,21.00,20.50,21.00,20.50,20.25,20.50,20.25,21.00,20.75,20.50,20.00,20.00,20.00,19.50,20.00,20.50,20.50,19.75,20.25,20.00,20.00,20.00,20.50,21.25,20.25,19.50,20.50,20.50,20.00,19.50,20.25,21.00,20.50,19.25,21.00,20.50,19.75,20.00,20.25,20.75,20.25,18.50,21.00,20.75,20.75,20.75,20.75,21.25,20.50,19.25,20.75,20.50,20.25,20.25,21.00,21.25,22.00,22.00,22.75,21.50,21.25,20.50,20.25
2211852,0,0,5.23,47,1,-15.4,-27.8,-0.3,0.094,-0.104,1.077,20.75,20.25,20.50,20.75,20.50,20.25,19.50,19.75,20.25,20.25,20.25,20.25,19.75,19.75,19.75,19.50,20.25,20.25,19.75,20.00,19.75,20.00,20.00,19.75,20.50,20.00,19.50,20.00,19.75,20.00,19.50,19.50,21.00,19.75,19.25,20.75,20.50,19.75,20.25,19.75,21.25,20.00,18.75,21.00,20.25,20.50,20.00,19.75,21.00,20.75,19.00,20.75,20.00,20.50,20.25,20.00,21.50,21.75,22.25,22.50,21.25,20.50,19.75,19.75
2211952,0,0,5.23,44,1,21.8,0.1,-5.7,0.045,-0.057,1.022,21.25,21.00,20.75,21.00,21.00,20.50,19.25,20.50,20.50,20.75,20.25,20.50,19.75,20.00,19.50,19.75,20.50,21.00,20.50,20.50,20.25,20.00,19.50,19.75,20.75,20.50,19.75,20.00,20.50,20.00,19.75,19.75,21.25,20.25,19.75,20.75,20.50,20.00,20.25,19.25,21.25,20.00,19.50,20.75,20.75,20.50,20.00,20.00,21.75,20.50,19.25,21.25,20.25,21.00,20.50,20.25,21.50,22.00,21.75,22.50,21.25,21.00,20.00,20.50
2212052,0,0,5.23,44,1,-3.1,5.2,-29.1,0.045,-0.120,1.049,20.75,20.75,20.75,20.25,20.25,20.50,20.00,20.00,20.50,21.00,20.50,20.50,20.50,20.00,20.00,20.50,20.50,21.25,20.50,20.50,20.50,20.25,19.75,19.75,20.75,20.50,19.75,20.25,20.00,19.75,19.75,19.75,21.00,20.25,19.50,20.25,21.00,20.25,20.00,19.75,21.75,20.25,19.00,21.25,21.25,21.00,20.50,20.25,21.50,21.00,19.50,21.25,20.25,21.00,20.25,20.50,21.50,22.25,22.50,22.50,21.00,21.50,20.50,20.00
2212152,0,0,5.23,44,1,5.0,4.0,-22.3,-0.045,-0.080,1.045,21.25,21.00,20.75,20.75,21.25,20.75,20.75,20.50,20.75,20.75,20.25,20.75,20.50,20.25,19.75,20.00,20.50,20.50,19.50,20.25,20.25,20.25,20.25,19.75,21.00,20.50,19.75,20.50,20.75,20.50,19.75,20.00,21.00,20.50,19.50,20.75,20.75,20.00,20.50,19.50,21.75,20.75,18.50,21.25,21.25,20.50,20.50,20.75,21.25,20.50,18.75,20.25,20.75,21.00,20.50,20.75,21.75,22.50,22.50,22.50,22.00,21.00,20.25,20.75
2212252,0,0,5.23,47,1,-7.6,-5.8,-2.1,0.058,0.043,1.008,20.75,21.25,21.00,21.00,21.00,21.25,20.50,20.25,21.25,21.00,20.50,20.75,20.25,20.25,20.25,20.25,21.00,21.25,20.25,20.75,20.75,20.50,20.50,20.75,21.25,20.50,20.00,20.25,20.50,20.00,19.75,20.50,21.00,20.50,19.75,20.50,21.25,20.00,20.50,20.00,21.50,20.75,19.75,20.50,21.00,20.75,20.25,20.75,21.50,21.25,19.50,20.50,21.00,20.50,21.00,20.50,21.50,22.00,22.50,22.75,22.25,21.00,20.75,21.00
2212352,0,0,5.23,44,1,7.1,11.3,-10.3,0.030,-0.010,1.050,21.00,20.75,21.25,21.00,20.50,20.75,20.00,20.25,21.25,20.75,20.50,21.00,20.50,20.50,20.25,20.00,21.00,21.00,20.00,20.00,20.25,20.50,20.25,19.75,21.00,20.50,20.00,19.75,20.75,20.00,19.75,20.00,20.50,20.50,19.50,20.00,21.00,20.00,20.25,20.00,21.50,20.50,20.00,19.50,21.00,20.50,20.00,20.25,21.75,20.75,20.00,20.50,21.50,20.75,20.50,20.75,21.75,22.50,22.25,22.25,22.25,21.00,20.75,20.75
2212452,0,0,5.23,44,1,19.0,17.4,-2.3,-0.095,-0.040,1.035,20.75,21.00,21.00,20.75,20.75,20.75,21.00,20.00,21.25,20.75,20.50,20.75,20.50,21.00,20.00,20.00,20.75,20.75,20.25,20.50,20.75,20.50,20.25,20.00,21.50,20.75,20.25,19.75,20.75,20.50,20.25,20.50,21.00,20.50,20.00,20.50,20.75,20.00,20.75,20.00,22.00,20.75,20.00,19.75,21.50,21.00,20.50,20.25,21.50,21.00,20.50,20.25,21.00,21.00,20.75,20.50,21.50,22.50,22.25,23.00,22.25,21.50,21.00,21.00
2212552,0,0,5.23,45,1,-17.4,-3.8,3.8,-0.008,0.031,0.996,21.25,21.00,21.00,21.00,21.25,21.25,20.25,20.25,21.00,21.25,20.75,21.00,20.25,20.50,20.25,20.00,21.00,21.25,20.25,20.25,20.25,20.75,20.00,20.00,21.25,21.00,20.25,19.75,20.75,20.50,20.00,20.50,21.00,21.25,20.00,20.25,21.50,20.50,20.75,20.75,21.25,21.25,20.25,20.00,21.50,21.25,20.75,21.00,21.50,21.25E (2432326) task_wdt: Task watchdog got triggered. The following tasks/users did not reset the watchdog in time:
[1;31mE (2432326) task_wdt:  - IDLE0 (CPU 0)[0m
[1;31mE (2432326) task_wdt: Tasks currently running:[0m
[1;31mE (2432326) task_wdt: CPU 0: main[0m
[1;31mE (2432326) task_wdt: CPU 1: IDLE1[0m
[1;31mE (2432326) task_wdt: Print CPU 0 (current core) backtrace[0m


Backtrace: 0x4201224E:0x3FC949D0 0x42012654:0x3FC949F0 0x40377619:0x3FC94A20 0x42008C82:0x3FC99FD0 0x42009401:0x3FC9A000 0x4200200A:0x3FC9A030 0x4200B982:0x3FC9A050 0x42008276:0x3FC9A070 0x42015FE5:0x3FC9A090 0x42013102:0x3FC9A0C0 0x42013B35:0x3FC9A0E0 0x420132DF:0x3FC9A160 0x4200CA30:0x3FC9A1B0 0x4200CCDC:0x3FC9A240 0x4200CDEB:0x3FC9A2C0 0x420079EB:0x3FC9A330 0x4201C53A:0x3FC9A360
--- 0x4201224e: task_wdt_timeout_handling at /home/xyzzy/esp/esp-idf/components/esp_system/task_wdt/task_wdt.c:437--- 0x42012654: task_wdt_isr at /home/xyzzy/esp/esp-idf/components/esp_system/task_wdt/task_wdt.c:510--- 0x40377619: _xt_lowint1 at /home/xyzzy/esp/esp-idf/components/xtensa/xtensa_vectors.S:1264--- 0x42008c82: uart_ll_get_txfifo_len at /home/xyzzy/esp/esp-idf/components/esp_hal_uart/esp32s3/include/hal/uart_ll.h:529--- (inlined by) uart_tx_char at /home/xyzzy/esp/esp-idf/components/esp_driver_uart/src/uart_vfs.c:191--- 0x42009401: uart_write at /home/xyzzy/esp/esp-idf/components/esp_driver_uart/src/uart_vfs.c:246--- 0x4200200a: console_write at /home/xyzzy/esp/esp-idf/components/esp_stdio/stdio_vfs.c:180--- 0x4200b982: esp_vfs_write at /home/xyzzy/esp/esp-idf/components/vfs/vfs_calls.c:74--- 0x42008276: write at /home/xyzzy/esp/esp-idf/components/esp_libc/src/syscalls.c:51--- 0x42015fe5: __bufio_flush_locked at ??:?--- 0x42013102: __bufio_put at ??:?--- 0x42013b35: __d_vfprintf at ??:?--- 0x420132df: printf at ??:?--- 0x4200ca30: rec_dump at /home/xyzzy/fred/f1/firmware/main/firmware_main.c:559--- 0x4200ccdc: handle_line at /home/xyzzy/fred/f1/firmware/main/firmware_main.c:683--- 0x4200cdeb: app_main at /home/xyzzy/fred/f1/firmware/main/firmware_main.c:726--- 0x420079eb: main_task at /home/xyzzy/esp/esp-idf/components/freertos/app_startup.c:206--- 0x4201c53a: vPortTaskWrapper at /home/xyzzy/esp/esp-idf/components/freertos/FreeRTOS-Kernel/portable/xtensa/port.c:153
,21.25,20.00,21.00,21.25,21.25,20.25,21.50,22.00,22.75,23.25,22.50,21.25,20.75,21.00
2212652,0,0,5.23,47,1,8.6,3.4,9.1,-0.010,-0.011,0.983,21.25,21.25,21.25,21.00,21.25,20.75,20.50,20.50,21.00,21.00,20.75,21.00,20.50,20.25,19.75,20.50,21.00,21.25,20.50,20.50,20.75,20.75,20.50,19.75,21.50,21.00,20.25,20.00,20.50,20.25,20.25,20.25,21.00,21.00,20.50,21.00,21.50,20.25,21.00,20.00,21.75,21.00,19.50,20.50,21.25,21.00,21.00,21.00,21.75,21.75,20.75,20.00,21.25,21.25,21.25,21.00,21.25,22.25,22.50,23.00,22.75,22.00,21.00,21.00
